trial	noise	noise_contrast	edge_contrast	edge_width	mean_lum	stim_time	rotID	transID	maskID	resp	correct	resptime	dropframes
0	narrow9	0.200000	0.011252	0.048000	100.000000	0.200000	0	0	6	0	1	0.069110	0
1	narrow9	0.200000	0.011252	0.048000	100.000000	0.200000	1	0	11	0	1	0.055490	0
2	narrow9	0.200000	0.000010	0.048000	100.000000	0.200000	0	1	32	1	1	0.151080	0
3	narrow9	0.200000	0.015000	0.048000	100.000000	0.200000	1	1	23	1	1	0.233600	0
4	narrow9	0.200000	0.007505	0.048000	100.000000	0.200000	1	0	27	0	1	0.283230	0
5	narrow9	0.200000	0.015000	0.048000	100.000000	0.200000	0	0	20	0	1	0.066400	0
6	narrow9	0.200000	0.007505	0.048000	100.000000	0.200000	1	0	15	1	0	0.285960	0
7	narrow9	0.200000	0.003757	0.048000	100.000000	0.200000	1	0	33	0	1	0.124740	0
8	narrow9	0.200000	0.015000	0.048000	100.000000	0.200000	0	1	28	1	1	0.086770	0
9	narrow9	0.200000	0.000010	0.048000	100.000000	0.200000	1	0	14	1	0	0.166040	0
10	narrow9	0.200000	0.015000	0.048000	100.000000	0.200000	1	1	25	1	1	0.095660	0
11	narrow9	0.200000	0.007505	0.048000	100.000000	0.200000	1	1	1	1	1	0.306040	0
12	narrow9	0.200000	0.007505	0.048000	100.000000	0.200000	1	1	31	1	1	0.042230	0
13	narrow9	0.200000	0.000010	0.048000	100.000000	0.200000	0	0	13	0	1	0.281010	0
14	narrow9	0.200000	0.003757	0.048000	100.000000	0.200000	1	1	18	1	1	0.264860	0
15	narrow9	0.200000	0.011252	0.048000	100.000000	0.200000	0	0	24	0	1	0.136680	1
16	narrow9	0.200000	0.007505	0.048000	100.000000	0.200000	0	1	22	1	1	0.187740	0
17	narrow9	0.200000	0.007505	0.048000	100.000000	0.200000	0	0	25	0	1	0.348790	0
18	narrow9	0.200000	0.007505	0.048000	100.000000	0.200000	0	0	20	0	1	0.176480	0
19	narrow9	0.200000	0.011252	0.048000	100.000000	0.200000	0	1	0	1	1	0.121540	0
20	narrow9	0.200000	0.015000	0.048000	100.000000	0.200000	0	1	0	1	1	0.097450	0
21	narrow9	0.200000	0.003757	0.048000	100.000000	0.200000	0	1	29	0	0	0.320730	0
22	narrow9	0.200000	0.000010	0.048000	100.000000	0.200000	1	1	11	1	1	0.167950	0
23	narrow9	0.200000	0.007505	0.048000	100.000000	0.200000	1	1	30	0	0	0.169470	0
24	narrow9	0.200000	0.003757	0.048000	100.000000	0.200000	0	1	6	1	1	0.542450	0
25	narrow9	0.200000	0.003757	0.048000	100.000000	0.200000	0	1	17	1	1	0.178620	0
26	narrow9	0.200000	0.011252	0.048000	100.000000	0.200000	0	1	4	1	1	0.096800	0
27	narrow9	0.200000	0.003757	0.048000	100.000000	0.200000	1	0	10	1	0	0.234090	0
28	narrow9	0.200000	0.015000	0.048000	100.000000	0.200000	1	0	38	0	1	0.053010	0
29	narrow9	0.200000	0.000010	0.048000	100.000000	0.200000	0	1	28	0	0	0.196470	0
30	narrow9	0.200000	0.000010	0.048000	100.000000	0.200000	1	1	5	1	1	0.269810	0
31	narrow9	0.200000	0.007505	0.048000	100.000000	0.200000	1	1	1	1	1	0.066960	0
32	narrow9	0.200000	0.015000	0.048000	100.000000	0.200000	1	1	25	1	1	0.111630	0
33	narrow9	0.200000	0.011252	0.048000	100.000000	0.200000	1	1	0	1	1	0.144720	0
34	narrow9	0.200000	0.003757	0.048000	100.000000	0.200000	0	0	28	0	1	0.401340	0
35	narrow9	0.200000	0.015000	0.048000	100.000000	0.200000	1	1	35	1	1	0.151630	0
36	narrow9	0.200000	0.015000	0.048000	100.000000	0.200000	0	0	22	0	1	0.242630	0
37	narrow9	0.200000	0.011252	0.048000	100.000000	0.200000	0	1	38	1	1	0.092470	0
38	narrow9	0.200000	0.003757	0.048000	100.000000	0.200000	0	0	10	1	0	0.128130	0
39	narrow9	0.200000	0.007505	0.048000	100.000000	0.200000	1	0	34	0	1	0.069230	0
40	narrow9	0.200000	0.015000	0.048000	100.000000	0.200000	0	0	22	0	1	0.137250	0
41	narrow9	0.200000	0.007505	0.048000	100.000000	0.200000	1	0	23	0	1	0.135170	0
42	narrow9	0.200000	0.011252	0.048000	100.000000	0.200000	0	0	32	0	1	0.140610	0
43	narrow9	0.200000	0.007505	0.048000	100.000000	0.200000	1	1	4	1	1	0.090860	0
44	narrow9	0.200000	0.000010	0.048000	100.000000	0.200000	0	1	17	1	1	0.098540	0
45	narrow9	0.200000	0.015000	0.048000	100.000000	0.200000	0	1	1	1	1	0.120240	0
46	narrow9	0.200000	0.015000	0.048000	100.000000	0.200000	1	1	33	1	1	0.081850	0
47	narrow9	0.200000	0.003757	0.048000	100.000000	0.200000	1	0	27	1	0	0.155590	0
48	narrow9	0.200000	0.000010	0.048000	100.000000	0.200000	1	1	9	0	0	0.335120	0
49	narrow9	0.200000	0.003757	0.048000	100.000000	0.200000	0	0	27	0	1	0.138550	0
50	narrow9	0.200000	0.011252	0.048000	100.000000	0.200000	1	1	10	1	1	0.321690	0
51	narrow9	0.200000	0.007505	0.048000	100.000000	0.200000	0	1	0	1	1	0.107230	0
52	narrow9	0.200000	0.015000	0.048000	100.000000	0.200000	0	1	26	1	1	0.056820	0
53	narrow9	0.200000	0.007505	0.048000	100.000000	0.200000	1	1	20	1	1	0.062800	0
54	narrow9	0.200000	0.011252	0.048000	100.000000	0.200000	1	1	4	1	1	0.090760	0
55	narrow9	0.200000	0.003757	0.048000	100.000000	0.200000	1	0	5	1	0	0.134520	0
56	narrow9	0.200000	0.003757	0.048000	100.000000	0.200000	0	0	27	0	1	0.272850	0
57	narrow9	0.200000	0.003757	0.048000	100.000000	0.200000	1	0	9	0	1	0.186580	0
58	narrow9	0.200000	0.015000	0.048000	100.000000	0.200000	0	1	35	1	1	0.106320	0
59	narrow9	0.200000	0.000010	0.048000	100.000000	0.200000	1	1	26	1	1	0.104890	0
60	narrow9	0.200000	0.011252	0.048000	100.000000	0.200000	0	0	2	1	0	0.329720	0
61	narrow9	0.200000	0.003757	0.048000	100.000000	0.200000	0	0	3	0	1	0.239230	0
62	narrow9	0.200000	0.003757	0.048000	100.000000	0.200000	0	0	19	1	0	0.164060	0
63	narrow9	0.200000	0.007505	0.048000	100.000000	0.200000	0	0	24	0	1	0.250080	0
64	narrow9	0.200000	0.007505	0.048000	100.000000	0.200000	0	1	2	1	1	0.155870	0
65	narrow9	0.200000	0.000010	0.048000	100.000000	0.200000	1	1	23	0	0	0.187490	0
66	narrow9	0.200000	0.015000	0.048000	100.000000	0.200000	0	1	11	1	1	0.090030	0
67	narrow9	0.200000	0.011252	0.048000	100.000000	0.200000	1	1	34	1	1	0.186540	0
68	narrow9	0.200000	0.011252	0.048000	100.000000	0.200000	1	1	37	1	1	0.095140	0
69	narrow9	0.200000	0.000010	0.048000	100.000000	0.200000	0	1	4	1	1	0.173270	0
70	narrow9	0.200000	0.015000	0.048000	100.000000	0.200000	0	0	28	0	1	0.142730	0
71	narrow9	0.200000	0.007505	0.048000	100.000000	0.200000	1	1	0	1	1	1.146210	0
72	narrow9	0.200000	0.003757	0.048000	100.000000	0.200000	1	0	24	0	1	0.245290	0
73	narrow9	0.200000	0.003757	0.048000	100.000000	0.200000	1	0	29	1	0	0.281580	0
74	narrow9	0.200000	0.000010	0.048000	100.000000	0.200000	1	1	15	1	1	0.132740	0
75	narrow9	0.200000	0.003757	0.048000	100.000000	0.200000	1	1	35	1	1	0.069290	0
76	narrow9	0.200000	0.011252	0.048000	100.000000	0.200000	0	1	29	1	1	0.057470	0
77	narrow9	0.200000	0.003757	0.048000	100.000000	0.200000	0	0	0	1	0	0.078030	0
78	narrow9	0.200000	0.007505	0.048000	100.000000	0.200000	0	1	23	1	1	0.046570	0
79	narrow9	0.200000	0.000010	0.048000	100.000000	0.200000	0	1	21	1	1	0.170740	0
80	narrow9	0.200000	0.011252	0.048000	100.000000	0.200000	0	1	39	1	1	0.060910	0
81	narrow9	0.200000	0.007505	0.048000	100.000000	0.200000	1	1	35	1	1	0.163680	0
82	narrow9	0.200000	0.007505	0.048000	100.000000	0.200000	0	1	8	1	1	0.103100	0
83	narrow9	0.200000	0.000010	0.048000	100.000000	0.200000	0	0	14	1	0	0.227450	0
84	narrow9	0.200000	0.011252	0.048000	100.000000	0.200000	1	0	38	0	1	0.191630	0
85	narrow9	0.200000	0.015000	0.048000	100.000000	0.200000	1	1	13	1	1	0.108260	0
86	narrow9	0.200000	0.011252	0.048000	100.000000	0.200000	0	0	7	0	1	0.155980	0
87	narrow9	0.200000	0.003757	0.048000	100.000000	0.200000	1	0	9	0	1	0.111370	0
88	narrow9	0.200000	0.015000	0.048000	100.000000	0.200000	0	1	10	1	1	0.128010	0
89	narrow9	0.200000	0.015000	0.048000	100.000000	0.200000	1	1	12	1	1	0.073380	0
90	narrow9	0.200000	0.000010	0.048000	100.000000	0.200000	0	1	2	1	1	0.126230	0
91	narrow9	0.200000	0.015000	0.048000	100.000000	0.200000	1	1	5	1	1	0.177520	0
92	narrow9	0.200000	0.000010	0.048000	100.000000	0.200000	1	0	13	1	0	0.572890	0
93	narrow9	0.200000	0.011252	0.048000	100.000000	0.200000	0	1	16	1	1	0.042070	0
94	narrow9	0.200000	0.011252	0.048000	100.000000	0.200000	1	0	27	0	1	0.130890	0
95	narrow9	0.200000	0.011252	0.048000	100.000000	0.200000	1	1	10	1	1	0.114520	0
96	narrow9	0.200000	0.000010	0.048000	100.000000	0.200000	0	1	1	1	1	0.069420	0
97	narrow9	0.200000	0.000010	0.048000	100.000000	0.200000	1	1	22	0	0	0.129480	0
98	narrow9	0.200000	0.000010	0.048000	100.000000	0.200000	0	1	10	1	1	0.121740	0
99	narrow9	0.200000	0.000010	0.048000	100.000000	0.200000	0	1	8	1	1	0.129620	0
