trial	noise	noise_contrast	edge_contrast	edge_width	mean_lum	stim_time	rotID	transID	maskID	resp	correct	resptime	dropframes
0	narrow3	0.200000	0.011252	0.150000	100.000000	0.200000	0	1	21	1	1	0.142860	0
1	narrow3	0.200000	0.003757	0.150000	100.000000	0.200000	0	1	29	1	1	0.209410	0
2	narrow3	0.200000	0.007505	0.150000	100.000000	0.200000	0	1	35	1	1	0.151680	0
3	narrow3	0.200000	0.000010	0.150000	100.000000	0.200000	1	1	37	1	1	0.308610	0
4	narrow3	0.200000	0.007505	0.150000	100.000000	0.200000	0	1	22	1	1	0.176230	0
5	narrow3	0.200000	0.007505	0.150000	100.000000	0.200000	1	1	20	1	1	0.166060	0
6	narrow3	0.200000	0.007505	0.150000	100.000000	0.200000	0	1	16	1	1	0.163210	0
7	narrow3	0.200000	0.007505	0.150000	100.000000	0.200000	1	1	17	1	1	0.628850	0
8	narrow3	0.200000	0.015000	0.150000	100.000000	0.200000	0	0	23	0	1	0.198650	0
9	narrow3	0.200000	0.015000	0.150000	100.000000	0.200000	0	1	14	1	1	0.124620	0
10	narrow3	0.200000	0.011252	0.150000	100.000000	0.200000	0	0	26	0	1	0.139450	0
11	narrow3	0.200000	0.011252	0.150000	100.000000	0.200000	0	0	36	0	1	0.186380	0
12	narrow3	0.200000	0.015000	0.150000	100.000000	0.200000	1	1	28	1	1	0.159800	0
13	narrow3	0.200000	0.011252	0.150000	100.000000	0.200000	0	0	20	0	1	0.137940	0
14	narrow3	0.200000	0.015000	0.150000	100.000000	0.200000	0	0	27	0	1	0.146240	0
15	narrow3	0.200000	0.015000	0.150000	100.000000	0.200000	1	1	19	1	1	0.141340	0
16	narrow3	0.200000	0.003757	0.150000	100.000000	0.200000	1	0	13	0	1	1.184350	0
17	narrow3	0.200000	0.007505	0.150000	100.000000	0.200000	0	1	1	1	1	0.163360	0
18	narrow3	0.200000	0.003757	0.150000	100.000000	0.200000	0	0	35	0	1	0.565670	0
19	narrow3	0.200000	0.011252	0.150000	100.000000	0.200000	0	1	6	1	1	0.181330	0
20	narrow3	0.200000	0.007505	0.150000	100.000000	0.200000	0	1	39	1	1	0.091010	0
21	narrow3	0.200000	0.003757	0.150000	100.000000	0.200000	1	1	22	0	0	0.206420	0
22	narrow3	0.200000	0.003757	0.150000	100.000000	0.200000	1	0	2	1	0	0.250510	0
23	narrow3	0.200000	0.015000	0.150000	100.000000	0.200000	0	1	30	1	1	0.094590	0
24	narrow3	0.200000	0.003757	0.150000	100.000000	0.200000	1	1	32	1	1	0.215240	0
25	narrow3	0.200000	0.000010	0.150000	100.000000	0.200000	1	0	37	0	1	0.313360	0
26	narrow3	0.200000	0.003757	0.150000	100.000000	0.200000	1	0	25	0	1	0.303920	0
27	narrow3	0.200000	0.000010	0.150000	100.000000	0.200000	0	0	14	0	1	0.249270	0
28	narrow3	0.200000	0.000010	0.150000	100.000000	0.200000	1	0	8	0	1	0.099790	0
29	narrow3	0.200000	0.011252	0.150000	100.000000	0.200000	1	0	31	0	1	0.202260	0
30	narrow3	0.200000	0.000010	0.150000	100.000000	0.200000	0	0	7	0	1	0.222750	0
31	narrow3	0.200000	0.000010	0.150000	100.000000	0.200000	0	0	35	0	1	0.256790	0
32	narrow3	0.200000	0.011252	0.150000	100.000000	0.200000	0	1	10	1	1	0.079900	0
33	narrow3	0.200000	0.015000	0.150000	100.000000	0.200000	1	0	31	0	1	0.133900	0
34	narrow3	0.200000	0.011252	0.150000	100.000000	0.200000	1	0	24	0	1	0.230580	0
35	narrow3	0.200000	0.015000	0.150000	100.000000	0.200000	0	0	23	0	1	0.092340	0
36	narrow3	0.200000	0.011252	0.150000	100.000000	0.200000	1	1	19	1	1	0.185680	0
37	narrow3	0.200000	0.007505	0.150000	100.000000	0.200000	1	1	9	1	1	0.151490	0
38	narrow3	0.200000	0.015000	0.150000	100.000000	0.200000	1	0	34	0	1	0.139660	0
39	narrow3	0.200000	0.015000	0.150000	100.000000	0.200000	1	0	11	0	1	0.059810	0
40	narrow3	0.200000	0.000010	0.150000	100.000000	0.200000	1	1	3	0	0	0.129520	0
41	narrow3	0.200000	0.003757	0.150000	100.000000	0.200000	1	1	15	1	1	0.118820	0
42	narrow3	0.200000	0.011252	0.150000	100.000000	0.200000	1	1	30	1	1	0.034960	0
43	narrow3	0.200000	0.015000	0.150000	100.000000	0.200000	1	0	27	0	1	0.157220	0
44	narrow3	0.200000	0.000010	0.150000	100.000000	0.200000	0	0	12	1	0	0.164590	0
45	narrow3	0.200000	0.007505	0.150000	100.000000	0.200000	1	0	32	0	1	0.065470	0
46	narrow3	0.200000	0.011252	0.150000	100.000000	0.200000	1	1	24	1	1	0.042040	0
47	narrow3	0.200000	0.015000	0.150000	100.000000	0.200000	1	0	36	0	1	0.153020	0
48	narrow3	0.200000	0.000010	0.150000	100.000000	0.200000	1	0	16	1	0	0.176050	0
49	narrow3	0.200000	0.003757	0.150000	100.000000	0.200000	0	0	10	0	1	0.182840	0
50	narrow3	0.200000	0.003757	0.150000	100.000000	0.200000	0	0	7	1	0	0.572300	0
51	narrow3	0.200000	0.011252	0.150000	100.000000	0.200000	0	0	18	0	1	0.217200	0
52	narrow3	0.200000	0.000010	0.150000	100.000000	0.200000	1	1	27	0	0	0.108740	0
53	narrow3	0.200000	0.007505	0.150000	100.000000	0.200000	1	0	39	0	1	0.116080	0
54	narrow3	0.200000	0.007505	0.150000	100.000000	0.200000	0	1	1	1	1	0.158830	0
55	narrow3	0.200000	0.000010	0.150000	100.000000	0.200000	0	1	26	1	1	0.295370	0
56	narrow3	0.200000	0.003757	0.150000	100.000000	0.200000	0	1	35	1	1	0.189850	0
57	narrow3	0.200000	0.007505	0.150000	100.000000	0.200000	0	1	36	0	0	0.102780	0
58	narrow3	0.200000	0.003757	0.150000	100.000000	0.200000	1	1	8	1	1	0.073700	0
59	narrow3	0.200000	0.000010	0.150000	100.000000	0.200000	0	1	19	1	1	0.102230	0
60	narrow3	0.200000	0.003757	0.150000	100.000000	0.200000	0	0	30	1	0	0.130070	0
61	narrow3	0.200000	0.007505	0.150000	100.000000	0.200000	0	0	25	1	0	0.305430	0
62	narrow3	0.200000	0.000010	0.150000	100.000000	0.200000	0	1	28	1	1	0.119060	0
63	narrow3	0.200000	0.015000	0.150000	100.000000	0.200000	1	0	0	0	1	0.124690	0
64	narrow3	0.200000	0.007505	0.150000	100.000000	0.200000	0	1	2	1	1	0.200280	0
65	narrow3	0.200000	0.015000	0.150000	100.000000	0.200000	0	1	24	1	1	0.098490	0
66	narrow3	0.200000	0.011252	0.150000	100.000000	0.200000	0	1	16	1	1	0.212430	0
67	narrow3	0.200000	0.011252	0.150000	100.000000	0.200000	1	1	4	1	1	0.078770	0
68	narrow3	0.200000	0.011252	0.150000	100.000000	0.200000	0	0	37	1	0	0.281820	0
69	narrow3	0.200000	0.007505	0.150000	100.000000	0.200000	1	1	9	1	1	0.120620	0
70	narrow3	0.200000	0.011252	0.150000	100.000000	0.200000	1	1	30	1	1	0.078990	0
71	narrow3	0.200000	0.015000	0.150000	100.000000	0.200000	1	1	22	1	1	0.072780	0
72	narrow3	0.200000	0.011252	0.150000	100.000000	0.200000	0	1	27	1	1	0.093140	0
73	narrow3	0.200000	0.003757	0.150000	100.000000	0.200000	1	0	31	0	1	0.290930	0
74	narrow3	0.200000	0.000010	0.150000	100.000000	0.200000	1	0	31	0	1	0.405230	1
75	narrow3	0.200000	0.015000	0.150000	100.000000	0.200000	1	0	29	0	1	0.127800	0
76	narrow3	0.200000	0.003757	0.150000	100.000000	0.200000	1	1	23	1	1	0.306160	0
77	narrow3	0.200000	0.007505	0.150000	100.000000	0.200000	0	0	1	0	1	0.183240	0
78	narrow3	0.200000	0.003757	0.150000	100.000000	0.200000	1	1	31	1	1	0.096220	0
79	narrow3	0.200000	0.015000	0.150000	100.000000	0.200000	1	0	26	0	1	0.222100	0
80	narrow3	0.200000	0.007505	0.150000	100.000000	0.200000	0	0	0	0	1	0.169670	0
81	narrow3	0.200000	0.007505	0.150000	100.000000	0.200000	1	1	15	0	0	0.149920	0
82	narrow3	0.200000	0.011252	0.150000	100.000000	0.200000	1	1	16	1	1	0.098310	0
83	narrow3	0.200000	0.003757	0.150000	100.000000	0.200000	1	0	1	1	0	0.148700	0
84	narrow3	0.200000	0.000010	0.150000	100.000000	0.200000	1	0	39	1	0	0.145320	0
85	narrow3	0.200000	0.007505	0.150000	100.000000	0.200000	1	1	22	1	1	0.274220	0
86	narrow3	0.200000	0.000010	0.150000	100.000000	0.200000	0	1	30	0	0	0.179040	0
87	narrow3	0.200000	0.015000	0.150000	100.000000	0.200000	1	0	15	0	1	0.126160	0
88	narrow3	0.200000	0.003757	0.150000	100.000000	0.200000	1	0	15	0	1	0.242660	0
89	narrow3	0.200000	0.011252	0.150000	100.000000	0.200000	0	1	10	1	1	0.096540	0
90	narrow3	0.200000	0.003757	0.150000	100.000000	0.200000	1	1	9	1	1	0.117230	0
91	narrow3	0.200000	0.007505	0.150000	100.000000	0.200000	1	1	37	1	1	0.192150	0
92	narrow3	0.200000	0.000010	0.150000	100.000000	0.200000	0	0	13	1	0	0.137540	0
93	narrow3	0.200000	0.000010	0.150000	100.000000	0.200000	0	0	3	0	1	0.127150	0
94	narrow3	0.200000	0.011252	0.150000	100.000000	0.200000	1	0	7	0	1	0.151750	0
95	narrow3	0.200000	0.015000	0.150000	100.000000	0.200000	1	1	13	1	1	0.102970	0
96	narrow3	0.200000	0.000010	0.150000	100.000000	0.200000	0	0	28	1	0	0.123110	0
97	narrow3	0.200000	0.003757	0.150000	100.000000	0.200000	1	1	39	1	1	0.175180	0
98	narrow3	0.200000	0.015000	0.150000	100.000000	0.200000	1	0	17	0	1	0.191140	0
99	narrow3	0.200000	0.000010	0.150000	100.000000	0.200000	0	0	27	1	0	0.200520	0
