trial	noise	noise_contrast	edge_contrast	edge_width	mean_lum	stim_time	rotID	transID	maskID	resp	correct	resptime	dropframes
0	white	0.200000	0.006255	0.150000	100.000000	0.200000	0	0	30	0	1	0.134890	0
1	white	0.200000	0.012500	0.150000	100.000000	0.200000	1	1	25	1	1	0.117920	0
2	white	0.200000	0.003133	0.150000	100.000000	0.200000	0	0	29	1	0	0.277610	0
3	white	0.200000	0.009378	0.150000	100.000000	0.200000	0	0	38	0	1	0.142650	0
4	white	0.200000	0.012500	0.150000	100.000000	0.200000	1	0	13	0	1	0.081350	0
5	white	0.200000	0.012500	0.150000	100.000000	0.200000	1	0	32	0	1	0.071650	0
6	white	0.200000	0.012500	0.150000	100.000000	0.200000	0	1	25	1	1	0.135830	0
7	white	0.200000	0.006255	0.150000	100.000000	0.200000	0	0	10	0	1	0.109800	0
8	white	0.200000	0.006255	0.150000	100.000000	0.200000	1	0	16	0	1	0.165920	0
9	white	0.200000	0.006255	0.150000	100.000000	0.200000	1	1	38	1	1	0.062080	0
10	white	0.200000	0.012500	0.150000	100.000000	0.200000	1	1	17	1	1	0.024160	0
11	white	0.200000	0.000010	0.150000	100.000000	0.200000	1	0	3	1	0	0.104120	0
12	white	0.200000	0.003133	0.150000	100.000000	0.200000	0	0	39	1	0	0.414360	0
13	white	0.200000	0.012500	0.150000	100.000000	0.200000	1	0	8	0	1	0.152570	0
14	white	0.200000	0.000010	0.150000	100.000000	0.200000	1	1	18	0	0	0.234600	0
15	white	0.200000	0.000010	0.150000	100.000000	0.200000	1	1	6	1	1	0.115380	0
16	white	0.200000	0.000010	0.150000	100.000000	0.200000	0	1	27	1	1	0.297030	0
17	white	0.200000	0.012500	0.150000	100.000000	0.200000	1	1	10	1	1	0.069440	0
18	white	0.200000	0.006255	0.150000	100.000000	0.200000	1	1	8	1	1	0.048300	0
19	white	0.200000	0.009378	0.150000	100.000000	0.200000	1	1	2	1	1	0.043820	0
20	white	0.200000	0.012500	0.150000	100.000000	0.200000	0	0	15	0	1	0.130200	0
21	white	0.200000	0.003133	0.150000	100.000000	0.200000	0	1	12	0	0	0.065840	0
22	white	0.200000	0.009378	0.150000	100.000000	0.200000	1	1	19	1	1	0.048070	0
23	white	0.200000	0.000010	0.150000	100.000000	0.200000	1	1	16	1	1	0.087180	0
24	white	0.200000	0.006255	0.150000	100.000000	0.200000	1	1	11	1	1	0.080990	1
25	white	0.200000	0.003133	0.150000	100.000000	0.200000	1	0	4	0	1	0.171650	0
26	white	0.200000	0.000010	0.150000	100.000000	0.200000	0	0	21	0	1	0.099840	0
27	white	0.200000	0.009378	0.150000	100.000000	0.200000	0	1	38	1	1	0.067180	0
28	white	0.200000	0.003133	0.150000	100.000000	0.200000	1	0	30	1	0	0.066090	0
29	white	0.200000	0.006255	0.150000	100.000000	0.200000	0	0	23	1	0	0.031030	0
30	white	0.200000	0.000010	0.150000	100.000000	0.200000	0	0	10	0	1	0.336930	0
31	white	0.200000	0.003133	0.150000	100.000000	0.200000	1	0	35	0	1	0.157820	0
32	white	0.200000	0.000010	0.150000	100.000000	0.200000	1	1	30	1	1	0.082420	0
33	white	0.200000	0.006255	0.150000	100.000000	0.200000	0	0	20	1	0	0.084570	0
34	white	0.200000	0.000010	0.150000	100.000000	0.200000	0	0	28	1	0	0.105170	0
35	white	0.200000	0.003133	0.150000	100.000000	0.200000	1	0	33	0	1	0.080020	0
36	white	0.200000	0.006255	0.150000	100.000000	0.200000	0	0	21	0	1	0.108380	0
37	white	0.200000	0.000010	0.150000	100.000000	0.200000	1	1	2	0	0	0.241150	0
38	white	0.200000	0.000010	0.150000	100.000000	0.200000	0	1	27	1	1	0.068050	0
39	white	0.200000	0.009378	0.150000	100.000000	0.200000	0	1	34	1	1	0.085800	0
40	white	0.200000	0.006255	0.150000	100.000000	0.200000	1	1	18	1	1	0.054480	0
41	white	0.200000	0.003133	0.150000	100.000000	0.200000	0	1	12	1	1	0.111170	0
42	white	0.200000	0.000010	0.150000	100.000000	0.200000	1	1	31	1	1	0.480130	0
43	white	0.200000	0.012500	0.150000	100.000000	0.200000	0	1	34	1	1	0.091900	0
44	white	0.200000	0.000010	0.150000	100.000000	0.200000	1	0	21	1	0	0.324100	0
45	white	0.200000	0.006255	0.150000	100.000000	0.200000	0	0	39	0	1	0.179530	0
46	white	0.200000	0.003133	0.150000	100.000000	0.200000	0	0	29	1	0	0.235910	0
47	white	0.200000	0.000010	0.150000	100.000000	0.200000	1	1	27	1	1	0.172460	0
48	white	0.200000	0.009378	0.150000	100.000000	0.200000	0	1	14	1	1	0.124710	0
49	white	0.200000	0.009378	0.150000	100.000000	0.200000	1	1	3	1	1	0.075760	0
50	white	0.200000	0.009378	0.150000	100.000000	0.200000	1	1	17	1	1	0.041140	0
51	white	0.200000	0.012500	0.150000	100.000000	0.200000	0	1	26	1	1	0.053940	0
52	white	0.200000	0.012500	0.150000	100.000000	0.200000	0	0	5	0	1	0.092990	0
53	white	0.200000	0.012500	0.150000	100.000000	0.200000	0	0	39	0	1	0.057190	0
54	white	0.200000	0.006255	0.150000	100.000000	0.200000	1	0	19	0	1	0.124960	0
55	white	0.200000	0.009378	0.150000	100.000000	0.200000	1	1	17	1	1	0.065780	0
56	white	0.200000	0.012500	0.150000	100.000000	0.200000	1	0	22	0	1	0.107250	0
57	white	0.200000	0.006255	0.150000	100.000000	0.200000	1	1	2	1	1	0.243670	0
58	white	0.200000	0.012500	0.150000	100.000000	0.200000	1	1	1	1	1	0.146370	0
59	white	0.200000	0.000010	0.150000	100.000000	0.200000	1	1	34	1	1	0.189840	0
60	white	0.200000	0.003133	0.150000	100.000000	0.200000	0	0	30	0	1	0.101180	0
61	white	0.200000	0.003133	0.150000	100.000000	0.200000	0	0	26	0	1	0.397390	0
62	white	0.200000	0.006255	0.150000	100.000000	0.200000	0	0	32	0	1	0.166560	0
63	white	0.200000	0.003133	0.150000	100.000000	0.200000	0	0	28	1	0	0.073670	0
64	white	0.200000	0.006255	0.150000	100.000000	0.200000	0	0	10	0	1	0.102890	0
65	white	0.200000	0.012500	0.150000	100.000000	0.200000	0	1	7	1	1	0.090090	0
66	white	0.200000	0.003133	0.150000	100.000000	0.200000	1	1	16	0	0	0.121810	0
67	white	0.200000	0.009378	0.150000	100.000000	0.200000	0	0	25	0	1	0.182700	0
68	white	0.200000	0.012500	0.150000	100.000000	0.200000	0	1	1	1	1	0.091420	0
69	white	0.200000	0.000010	0.150000	100.000000	0.200000	1	0	0	1	0	0.106030	0
70	white	0.200000	0.009378	0.150000	100.000000	0.200000	0	1	0	1	1	0.023080	0
71	white	0.200000	0.006255	0.150000	100.000000	0.200000	1	1	9	1	1	0.068000	0
72	white	0.200000	0.009378	0.150000	100.000000	0.200000	0	0	32	0	1	0.157920	0
73	white	0.200000	0.003133	0.150000	100.000000	0.200000	0	0	5	0	1	0.130110	0
74	white	0.200000	0.009378	0.150000	100.000000	0.200000	0	0	0	0	1	0.118090	0
75	white	0.200000	0.009378	0.150000	100.000000	0.200000	1	0	35	0	1	0.121070	0
76	white	0.200000	0.000010	0.150000	100.000000	0.200000	0	1	21	1	1	0.086050	0
77	white	0.200000	0.006255	0.150000	100.000000	0.200000	1	0	29	0	1	0.089660	0
78	white	0.200000	0.009378	0.150000	100.000000	0.200000	0	1	22	1	1	0.085970	0
79	white	0.200000	0.009378	0.150000	100.000000	0.200000	0	1	16	1	1	0.020930	0
80	white	0.200000	0.003133	0.150000	100.000000	0.200000	0	0	24	1	0	0.074400	0
81	white	0.200000	0.012500	0.150000	100.000000	0.200000	0	0	7	0	1	0.051800	0
82	white	0.200000	0.000010	0.150000	100.000000	0.200000	1	1	9	0	0	0.224060	0
83	white	0.200000	0.003133	0.150000	100.000000	0.200000	1	1	37	1	1	0.101970	0
84	white	0.200000	0.000010	0.150000	100.000000	0.200000	1	0	14	0	1	0.139560	0
85	white	0.200000	0.003133	0.150000	100.000000	0.200000	1	1	15	1	1	0.075180	0
86	white	0.200000	0.009378	0.150000	100.000000	0.200000	1	1	0	1	1	0.082150	0
87	white	0.200000	0.006255	0.150000	100.000000	0.200000	1	0	4	0	1	0.099930	0
88	white	0.200000	0.003133	0.150000	100.000000	0.200000	1	0	27	0	1	0.121660	0
89	white	0.200000	0.003133	0.150000	100.000000	0.200000	0	1	35	1	1	0.102660	0
90	white	0.200000	0.000010	0.150000	100.000000	0.200000	1	0	16	1	0	0.151440	0
91	white	0.200000	0.012500	0.150000	100.000000	0.200000	1	0	37	0	1	0.093490	0
92	white	0.200000	0.003133	0.150000	100.000000	0.200000	0	1	25	0	0	0.510880	0
93	white	0.200000	0.009378	0.150000	100.000000	0.200000	1	0	39	0	1	0.179940	0
94	white	0.200000	0.009378	0.150000	100.000000	0.200000	1	1	4	1	1	0.077180	0
95	white	0.200000	0.006255	0.150000	100.000000	0.200000	1	1	14	1	1	0.111290	0
96	white	0.200000	0.006255	0.150000	100.000000	0.200000	0	1	7	1	1	0.101110	0
97	white	0.200000	0.012500	0.150000	100.000000	0.200000	0	0	25	0	1	0.075670	0
98	white	0.200000	0.009378	0.150000	100.000000	0.200000	0	1	21	1	1	0.099900	0
99	white	0.200000	0.012500	0.150000	100.000000	0.200000	0	0	38	0	1	0.117260	0
