trial	noise	noise_contrast	edge_contrast	edge_width	mean_lum	stim_time	rotID	transID	maskID	resp	correct	resptime	dropframes
0	pink1	0.200000	0.000010	0.950000	100.000000	0.200000	1	1	37	1	1	0.189490	0
1	pink1	0.200000	0.000010	0.950000	100.000000	0.200000	1	0	5	0	1	0.229630	0
2	pink1	0.200000	0.012507	0.950000	100.000000	0.200000	1	0	34	0	1	0.150550	0
3	pink1	0.200000	0.000010	0.950000	100.000000	0.200000	0	0	22	1	0	0.191250	0
4	pink1	0.200000	0.050000	0.950000	100.000000	0.200000	1	1	16	1	1	0.289570	0
5	pink1	0.200000	0.037503	0.950000	100.000000	0.200000	0	0	18	0	1	0.227630	0
6	pink1	0.200000	0.050000	0.950000	100.000000	0.200000	1	0	21	0	1	0.161540	0
7	pink1	0.200000	0.025005	0.950000	100.000000	0.200000	0	1	31	1	1	0.254920	0
8	pink1	0.200000	0.000010	0.950000	100.000000	0.200000	0	1	2	0	0	0.220330	0
9	pink1	0.200000	0.000010	0.950000	100.000000	0.200000	1	1	1	1	1	0.289320	0
10	pink1	0.200000	0.037503	0.950000	100.000000	0.200000	0	0	18	0	1	0.153450	0
11	pink1	0.200000	0.000010	0.950000	100.000000	0.200000	1	1	7	0	0	0.157610	0
12	pink1	0.200000	0.000010	0.950000	100.000000	0.200000	0	0	24	0	1	0.326710	0
13	pink1	0.200000	0.025005	0.950000	100.000000	0.200000	1	0	17	0	1	0.154160	1
14	pink1	0.200000	0.025005	0.950000	100.000000	0.200000	0	1	10	1	1	0.111150	0
15	pink1	0.200000	0.050000	0.950000	100.000000	0.200000	1	0	1	0	1	0.113110	0
16	pink1	0.200000	0.037503	0.950000	100.000000	0.200000	0	0	32	0	1	0.117420	0
17	pink1	0.200000	0.050000	0.950000	100.000000	0.200000	0	1	39	1	1	0.088600	0
18	pink1	0.200000	0.000010	0.950000	100.000000	0.200000	1	0	25	0	1	0.332810	0
19	pink1	0.200000	0.025005	0.950000	100.000000	0.200000	1	0	23	0	1	0.296100	0
20	pink1	0.200000	0.050000	0.950000	100.000000	0.200000	0	0	39	0	1	0.166430	0
21	pink1	0.200000	0.000010	0.950000	100.000000	0.200000	1	0	34	1	0	0.178560	0
22	pink1	0.200000	0.050000	0.950000	100.000000	0.200000	0	1	35	1	1	0.048230	0
23	pink1	0.200000	0.037503	0.950000	100.000000	0.200000	0	0	0	0	1	0.098140	0
24	pink1	0.200000	0.000010	0.950000	100.000000	0.200000	0	0	13	0	1	0.233830	0
25	pink1	0.200000	0.050000	0.950000	100.000000	0.200000	0	1	10	1	1	0.109450	0
26	pink1	0.200000	0.012507	0.950000	100.000000	0.200000	0	0	26	1	0	0.314890	0
27	pink1	0.200000	0.025005	0.950000	100.000000	0.200000	1	1	39	1	1	0.150120	0
28	pink1	0.200000	0.050000	0.950000	100.000000	0.200000	1	0	21	0	1	0.167530	0
29	pink1	0.200000	0.037503	0.950000	100.000000	0.200000	1	0	5	0	1	0.113650	0
30	pink1	0.200000	0.025005	0.950000	100.000000	0.200000	1	1	23	1	1	0.239990	0
31	pink1	0.200000	0.025005	0.950000	100.000000	0.200000	0	1	38	1	1	0.164030	0
32	pink1	0.200000	0.037503	0.950000	100.000000	0.200000	1	1	2	1	1	0.162740	0
33	pink1	0.200000	0.025005	0.950000	100.000000	0.200000	1	0	20	0	1	0.133620	0
34	pink1	0.200000	0.012507	0.950000	100.000000	0.200000	1	1	24	1	1	0.158010	0
35	pink1	0.200000	0.012507	0.950000	100.000000	0.200000	1	0	18	0	1	0.190930	0
36	pink1	0.200000	0.037503	0.950000	100.000000	0.200000	0	0	23	0	1	0.167670	0
37	pink1	0.200000	0.012507	0.950000	100.000000	0.200000	1	1	7	1	1	0.360810	0
38	pink1	0.200000	0.025005	0.950000	100.000000	0.200000	1	0	10	0	1	0.137150	0
39	pink1	0.200000	0.037503	0.950000	100.000000	0.200000	1	0	20	0	1	0.138560	0
40	pink1	0.200000	0.050000	0.950000	100.000000	0.200000	1	1	22	1	1	0.190340	0
41	pink1	0.200000	0.025005	0.950000	100.000000	0.200000	1	1	11	1	1	0.132600	0
42	pink1	0.200000	0.025005	0.950000	100.000000	0.200000	1	1	11	1	1	0.086780	0
43	pink1	0.200000	0.012507	0.950000	100.000000	0.200000	0	1	11	1	1	0.308690	0
44	pink1	0.200000	0.012507	0.950000	100.000000	0.200000	0	0	7	1	0	0.133270	0
45	pink1	0.200000	0.000010	0.950000	100.000000	0.200000	1	1	12	0	0	0.160050	0
46	pink1	0.200000	0.000010	0.950000	100.000000	0.200000	0	0	33	1	0	0.244060	0
47	pink1	0.200000	0.037503	0.950000	100.000000	0.200000	0	0	13	0	1	0.098880	0
48	pink1	0.200000	0.000010	0.950000	100.000000	0.200000	1	1	21	0	0	0.172760	0
49	pink1	0.200000	0.000010	0.950000	100.000000	0.200000	0	1	36	0	0	0.102710	0
50	pink1	0.200000	0.025005	0.950000	100.000000	0.200000	1	1	32	1	1	0.081510	0
51	pink1	0.200000	0.025005	0.950000	100.000000	0.200000	0	0	37	0	1	0.358270	0
52	pink1	0.200000	0.000010	0.950000	100.000000	0.200000	1	0	6	0	1	0.145960	0
53	pink1	0.200000	0.000010	0.950000	100.000000	0.200000	0	0	18	1	0	0.122570	0
54	pink1	0.200000	0.050000	0.950000	100.000000	0.200000	1	1	20	1	1	0.077950	0
55	pink1	0.200000	0.025005	0.950000	100.000000	0.200000	1	0	28	1	0	0.200610	0
56	pink1	0.200000	0.012507	0.950000	100.000000	0.200000	0	0	7	0	1	0.134250	0
57	pink1	0.200000	0.050000	0.950000	100.000000	0.200000	0	1	17	1	1	0.123730	0
58	pink1	0.200000	0.012507	0.950000	100.000000	0.200000	0	0	23	1	0	0.134770	0
59	pink1	0.200000	0.012507	0.950000	100.000000	0.200000	1	1	32	1	1	0.171470	0
60	pink1	0.200000	0.050000	0.950000	100.000000	0.200000	0	0	19	0	1	0.103090	0
61	pink1	0.200000	0.037503	0.950000	100.000000	0.200000	0	0	9	0	1	0.155770	0
62	pink1	0.200000	0.037503	0.950000	100.000000	0.200000	1	0	15	0	1	0.153570	0
63	pink1	0.200000	0.012507	0.950000	100.000000	0.200000	0	1	8	1	1	0.127070	0
64	pink1	0.200000	0.050000	0.950000	100.000000	0.200000	0	1	20	1	1	0.067200	0
65	pink1	0.200000	0.025005	0.950000	100.000000	0.200000	1	1	36	1	1	0.095750	0
66	pink1	0.200000	0.025005	0.950000	100.000000	0.200000	1	0	31	0	1	0.311660	0
67	pink1	0.200000	0.037503	0.950000	100.000000	0.200000	0	1	28	1	1	0.196940	0
68	pink1	0.200000	0.012507	0.950000	100.000000	0.200000	1	0	19	0	1	0.310270	0
69	pink1	0.200000	0.050000	0.950000	100.000000	0.200000	0	0	33	0	1	0.406060	0
70	pink1	0.200000	0.025005	0.950000	100.000000	0.200000	1	1	31	1	1	0.228020	0
71	pink1	0.200000	0.037503	0.950000	100.000000	0.200000	1	1	31	1	1	0.296730	0
72	pink1	0.200000	0.000010	0.950000	100.000000	0.200000	1	1	14	1	1	0.403630	0
73	pink1	0.200000	0.050000	0.950000	100.000000	0.200000	0	1	10	1	1	0.381870	0
74	pink1	0.200000	0.050000	0.950000	100.000000	0.200000	1	0	22	0	1	0.319980	0
75	pink1	0.200000	0.050000	0.950000	100.000000	0.200000	1	0	33	0	1	0.241620	0
76	pink1	0.200000	0.012507	0.950000	100.000000	0.200000	1	0	24	1	0	0.249900	0
77	pink1	0.200000	0.037503	0.950000	100.000000	0.200000	0	1	6	1	1	0.267390	0
78	pink1	0.200000	0.037503	0.950000	100.000000	0.200000	1	1	28	1	1	0.219820	0
79	pink1	0.200000	0.025005	0.950000	100.000000	0.200000	0	0	2	0	1	0.307800	0
80	pink1	0.200000	0.012507	0.950000	100.000000	0.200000	1	1	25	0	0	0.357640	0
81	pink1	0.200000	0.012507	0.950000	100.000000	0.200000	1	1	24	1	1	0.286150	0
82	pink1	0.200000	0.037503	0.950000	100.000000	0.200000	1	1	12	1	1	0.210990	0
83	pink1	0.200000	0.012507	0.950000	100.000000	0.200000	1	0	10	1	0	0.451880	0
84	pink1	0.200000	0.000010	0.950000	100.000000	0.200000	0	1	39	0	0	0.356040	0
85	pink1	0.200000	0.012507	0.950000	100.000000	0.200000	0	0	8	1	0	0.400640	0
86	pink1	0.200000	0.000010	0.950000	100.000000	0.200000	1	1	9	1	1	0.199800	0
87	pink1	0.200000	0.037503	0.950000	100.000000	0.200000	1	1	4	1	1	0.147410	0
88	pink1	0.200000	0.037503	0.950000	100.000000	0.200000	1	0	12	0	1	0.102540	0
89	pink1	0.200000	0.050000	0.950000	100.000000	0.200000	0	1	8	1	1	0.151380	0
90	pink1	0.200000	0.037503	0.950000	100.000000	0.200000	1	0	8	1	0	0.072290	0
91	pink1	0.200000	0.050000	0.950000	100.000000	0.200000	1	0	18	0	1	0.269270	0
92	pink1	0.200000	0.025005	0.950000	100.000000	0.200000	1	0	7	0	1	0.215370	0
93	pink1	0.200000	0.025005	0.950000	100.000000	0.200000	0	1	26	1	1	0.076970	0
94	pink1	0.200000	0.050000	0.950000	100.000000	0.200000	0	0	32	0	1	0.153780	0
95	pink1	0.200000	0.037503	0.950000	100.000000	0.200000	1	0	14	0	1	0.092020	0
96	pink1	0.200000	0.012507	0.950000	100.000000	0.200000	1	1	1	1	1	0.113470	0
97	pink1	0.200000	0.000010	0.950000	100.000000	0.200000	0	1	27	0	0	0.173190	0
98	pink1	0.200000	0.012507	0.950000	100.000000	0.200000	0	1	2	0	0	0.170550	0
99	pink1	0.200000	0.012507	0.950000	100.000000	0.200000	0	1	24	1	1	0.407550	0
