trial	noise	noise_contrast	edge_contrast	edge_width	mean_lum	stim_time	rotID	transID	maskID	resp	correct	resptime	dropframes
0	narrow0.5	0.200000	0.000758	0.150000	100.000000	0.200000	0	1	18	0	0	0.100900	0
1	narrow0.5	0.200000	0.000758	0.150000	100.000000	0.200000	0	0	7	1	0	0.100220	0
2	narrow0.5	0.200000	0.000758	0.150000	100.000000	0.200000	1	1	19	1	1	0.095310	0
3	narrow0.5	0.200000	0.001505	0.150000	100.000000	0.200000	0	0	13	1	0	0.117520	0
4	narrow0.5	0.200000	0.003000	0.150000	100.000000	0.200000	0	1	8	1	1	0.225310	0
5	narrow0.5	0.200000	0.001505	0.150000	100.000000	0.200000	1	0	30	1	0	0.615250	0
6	narrow0.5	0.200000	0.000010	0.150000	100.000000	0.200000	1	1	3	0	0	0.143160	0
7	narrow0.5	0.200000	0.001505	0.150000	100.000000	0.200000	0	0	29	0	1	0.175170	0
8	narrow0.5	0.200000	0.000010	0.150000	100.000000	0.200000	0	1	24	1	1	0.123530	0
9	narrow0.5	0.200000	0.002253	0.150000	100.000000	0.200000	1	1	21	1	1	0.113630	0
10	narrow0.5	0.200000	0.000010	0.150000	100.000000	0.200000	1	0	35	1	0	0.335660	0
11	narrow0.5	0.200000	0.003000	0.150000	100.000000	0.200000	1	0	18	0	1	0.120800	0
12	narrow0.5	0.200000	0.000010	0.150000	100.000000	0.200000	1	0	14	0	1	0.187730	0
13	narrow0.5	0.200000	0.002253	0.150000	100.000000	0.200000	1	0	12	0	1	0.220080	0
14	narrow0.5	0.200000	0.003000	0.150000	100.000000	0.200000	0	0	10	0	1	0.077650	0
15	narrow0.5	0.200000	0.000758	0.150000	100.000000	0.200000	1	1	19	1	1	0.377090	0
16	narrow0.5	0.200000	0.001505	0.150000	100.000000	0.200000	0	0	26	0	1	0.177210	0
17	narrow0.5	0.200000	0.002253	0.150000	100.000000	0.200000	1	0	12	0	1	0.103310	0
18	narrow0.5	0.200000	0.000758	0.150000	100.000000	0.200000	0	0	29	0	1	0.176200	0
19	narrow0.5	0.200000	0.002253	0.150000	100.000000	0.200000	0	1	2	1	1	0.058190	0
20	narrow0.5	0.200000	0.000010	0.150000	100.000000	0.200000	0	1	1	0	0	0.378900	0
21	narrow0.5	0.200000	0.000010	0.150000	100.000000	0.200000	0	1	17	1	1	0.302350	0
22	narrow0.5	0.200000	0.001505	0.150000	100.000000	0.200000	0	1	37	1	1	0.172620	0
23	narrow0.5	0.200000	0.002253	0.150000	100.000000	0.200000	1	1	5	1	1	0.144130	0
24	narrow0.5	0.200000	0.002253	0.150000	100.000000	0.200000	0	1	24	1	1	0.144280	0
25	narrow0.5	0.200000	0.003000	0.150000	100.000000	0.200000	1	1	38	1	1	0.192620	0
26	narrow0.5	0.200000	0.002253	0.150000	100.000000	0.200000	1	1	26	1	1	0.206720	0
27	narrow0.5	0.200000	0.000010	0.150000	100.000000	0.200000	1	0	7	0	1	0.236870	0
28	narrow0.5	0.200000	0.000010	0.150000	100.000000	0.200000	1	1	19	0	0	0.186160	0
29	narrow0.5	0.200000	0.000758	0.150000	100.000000	0.200000	0	1	22	1	1	0.139390	0
30	narrow0.5	0.200000	0.000758	0.150000	100.000000	0.200000	1	0	33	1	0	0.281890	0
31	narrow0.5	0.200000	0.000010	0.150000	100.000000	0.200000	1	1	11	1	1	0.182850	0
32	narrow0.5	0.200000	0.000010	0.150000	100.000000	0.200000	0	0	27	1	0	0.088460	0
33	narrow0.5	0.200000	0.003000	0.150000	100.000000	0.200000	1	1	29	1	1	0.154270	0
34	narrow0.5	0.200000	0.001505	0.150000	100.000000	0.200000	0	0	2	0	1	0.132580	0
35	narrow0.5	0.200000	0.002253	0.150000	100.000000	0.200000	0	0	1	0	1	0.051530	0
36	narrow0.5	0.200000	0.003000	0.150000	100.000000	0.200000	0	1	33	1	1	0.106600	0
37	narrow0.5	0.200000	0.002253	0.150000	100.000000	0.200000	1	1	33	1	1	0.069270	0
38	narrow0.5	0.200000	0.000010	0.150000	100.000000	0.200000	1	1	38	1	1	0.292760	0
39	narrow0.5	0.200000	0.002253	0.150000	100.000000	0.200000	0	1	6	1	1	0.210700	0
40	narrow0.5	0.200000	0.003000	0.150000	100.000000	0.200000	1	1	26	1	1	0.131920	0
41	narrow0.5	0.200000	0.003000	0.150000	100.000000	0.200000	0	0	3	0	1	0.133050	0
42	narrow0.5	0.200000	0.000010	0.150000	100.000000	0.200000	0	0	39	0	1	0.393120	0
43	narrow0.5	0.200000	0.000758	0.150000	100.000000	0.200000	0	0	38	0	1	0.381440	0
44	narrow0.5	0.200000	0.001505	0.150000	100.000000	0.200000	1	1	8	1	1	0.269240	0
45	narrow0.5	0.200000	0.002253	0.150000	100.000000	0.200000	0	0	16	0	1	0.147920	0
46	narrow0.5	0.200000	0.000758	0.150000	100.000000	0.200000	1	1	25	0	0	0.122940	0
47	narrow0.5	0.200000	0.001505	0.150000	100.000000	0.200000	0	1	34	1	1	0.324170	0
48	narrow0.5	0.200000	0.002253	0.150000	100.000000	0.200000	0	1	35	1	1	0.107490	0
49	narrow0.5	0.200000	0.001505	0.150000	100.000000	0.200000	1	1	34	1	1	0.114680	0
50	narrow0.5	0.200000	0.001505	0.150000	100.000000	0.200000	1	1	29	1	1	0.124070	0
51	narrow0.5	0.200000	0.003000	0.150000	100.000000	0.200000	0	1	31	1	1	0.127140	0
52	narrow0.5	0.200000	0.002253	0.150000	100.000000	0.200000	0	0	22	0	1	0.200020	0
53	narrow0.5	0.200000	0.001505	0.150000	100.000000	0.200000	1	0	10	0	1	0.136940	0
54	narrow0.5	0.200000	0.003000	0.150000	100.000000	0.200000	1	0	20	0	1	0.107050	0
55	narrow0.5	0.200000	0.002253	0.150000	100.000000	0.200000	0	1	6	1	1	0.107030	0
56	narrow0.5	0.200000	0.001505	0.150000	100.000000	0.200000	0	0	25	0	1	0.170010	0
57	narrow0.5	0.200000	0.000010	0.150000	100.000000	0.200000	1	1	1	0	0	0.417850	0
58	narrow0.5	0.200000	0.003000	0.150000	100.000000	0.200000	1	0	20	0	1	0.115520	0
59	narrow0.5	0.200000	0.000010	0.150000	100.000000	0.200000	1	0	12	0	1	0.154700	0
60	narrow0.5	0.200000	0.000010	0.150000	100.000000	0.200000	0	1	13	1	1	0.175940	0
61	narrow0.5	0.200000	0.003000	0.150000	100.000000	0.200000	1	0	16	1	0	0.135340	0
62	narrow0.5	0.200000	0.003000	0.150000	100.000000	0.200000	0	0	25	0	1	0.140850	0
63	narrow0.5	0.200000	0.000758	0.150000	100.000000	0.200000	1	0	4	0	1	0.160390	0
64	narrow0.5	0.200000	0.003000	0.150000	100.000000	0.200000	0	1	5	1	1	0.119670	0
65	narrow0.5	0.200000	0.001505	0.150000	100.000000	0.200000	0	0	12	0	1	0.152420	0
66	narrow0.5	0.200000	0.000010	0.150000	100.000000	0.200000	1	1	7	0	0	0.219780	0
67	narrow0.5	0.200000	0.003000	0.150000	100.000000	0.200000	0	0	2	0	1	0.213080	0
68	narrow0.5	0.200000	0.002253	0.150000	100.000000	0.200000	0	1	32	1	1	0.129400	0
69	narrow0.5	0.200000	0.000010	0.150000	100.000000	0.200000	1	0	15	1	0	0.130460	0
70	narrow0.5	0.200000	0.000010	0.150000	100.000000	0.200000	1	0	22	1	0	0.218880	0
71	narrow0.5	0.200000	0.000758	0.150000	100.000000	0.200000	1	1	37	1	1	0.276930	0
72	narrow0.5	0.200000	0.000758	0.150000	100.000000	0.200000	0	0	34	0	1	0.208750	0
73	narrow0.5	0.200000	0.002253	0.150000	100.000000	0.200000	0	1	14	1	1	0.222680	0
74	narrow0.5	0.200000	0.000758	0.150000	100.000000	0.200000	1	1	34	1	1	0.108670	0
75	narrow0.5	0.200000	0.001505	0.150000	100.000000	0.200000	0	1	4	1	1	0.117580	0
76	narrow0.5	0.200000	0.000758	0.150000	100.000000	0.200000	1	0	24	0	1	0.194350	0
77	narrow0.5	0.200000	0.000010	0.150000	100.000000	0.200000	1	0	18	1	0	0.153640	0
78	narrow0.5	0.200000	0.002253	0.150000	100.000000	0.200000	0	0	25	0	1	0.104080	0
79	narrow0.5	0.200000	0.001505	0.150000	100.000000	0.200000	1	1	9	1	1	0.167490	0
80	narrow0.5	0.200000	0.002253	0.150000	100.000000	0.200000	1	1	27	1	1	0.024760	0
81	narrow0.5	0.200000	0.000758	0.150000	100.000000	0.200000	0	0	3	1	0	0.285610	0
82	narrow0.5	0.200000	0.002253	0.150000	100.000000	0.200000	1	0	30	0	1	0.091140	0
83	narrow0.5	0.200000	0.001505	0.150000	100.000000	0.200000	0	0	17	1	0	0.503680	0
84	narrow0.5	0.200000	0.002253	0.150000	100.000000	0.200000	1	1	30	1	1	0.154330	0
85	narrow0.5	0.200000	0.000758	0.150000	100.000000	0.200000	0	0	28	0	1	0.153580	1
86	narrow0.5	0.200000	0.003000	0.150000	100.000000	0.200000	0	1	2	1	1	0.163620	0
87	narrow0.5	0.200000	0.001505	0.150000	100.000000	0.200000	0	0	32	0	1	0.081350	0
88	narrow0.5	0.200000	0.000010	0.150000	100.000000	0.200000	1	1	33	0	0	0.220190	0
89	narrow0.5	0.200000	0.001505	0.150000	100.000000	0.200000	1	0	8	1	0	0.162220	0
90	narrow0.5	0.200000	0.003000	0.150000	100.000000	0.200000	0	1	13	1	1	0.105540	0
91	narrow0.5	0.200000	0.000758	0.150000	100.000000	0.200000	1	1	16	1	1	0.116770	0
92	narrow0.5	0.200000	0.000758	0.150000	100.000000	0.200000	0	1	10	0	0	0.106830	0
93	narrow0.5	0.200000	0.003000	0.150000	100.000000	0.200000	1	0	33	0	1	0.171310	0
94	narrow0.5	0.200000	0.000758	0.150000	100.000000	0.200000	1	1	29	0	0	0.133140	0
95	narrow0.5	0.200000	0.003000	0.150000	100.000000	0.200000	0	0	37	0	1	0.132170	0
96	narrow0.5	0.200000	0.001505	0.150000	100.000000	0.200000	0	0	35	0	1	0.143600	0
97	narrow0.5	0.200000	0.003000	0.150000	100.000000	0.200000	0	0	38	0	1	0.141570	0
98	narrow0.5	0.200000	0.001505	0.150000	100.000000	0.200000	1	1	23	1	1	0.227810	0
99	narrow0.5	0.200000	0.000758	0.150000	100.000000	0.200000	0	0	38	1	0	0.202330	0
