trial	noise	noise_contrast	edge_contrast	edge_width	mean_lum	stim_time	rotID	transID	maskID	resp	correct	resptime	dropframes
0	pink1	0.200000	0.037503	0.950000	100.000000	0.200000	0	0	10	0	1	0.387750	0
1	pink1	0.200000	0.037503	0.950000	100.000000	0.200000	1	1	1	1	1	0.020660	0
2	pink1	0.200000	0.000010	0.950000	100.000000	0.200000	1	1	3	0	0	0.066500	0
3	pink1	0.200000	0.050000	0.950000	100.000000	0.200000	0	0	8	0	1	0.026870	0
4	pink1	0.200000	0.000010	0.950000	100.000000	0.200000	1	1	34	1	1	0.038260	0
5	pink1	0.200000	0.012507	0.950000	100.000000	0.200000	1	1	26	0	0	0.159370	1
6	pink1	0.200000	0.025005	0.950000	100.000000	0.200000	1	0	28	0	1	0.034800	0
7	pink1	0.200000	0.050000	0.950000	100.000000	0.200000	1	0	8	0	1	0.320840	0
8	pink1	0.200000	0.037503	0.950000	100.000000	0.200000	0	1	0	0	0	0.019530	0
9	pink1	0.200000	0.000010	0.950000	100.000000	0.200000	1	0	30	1	0	0.302350	0
10	pink1	0.200000	0.012507	0.950000	100.000000	0.200000	1	1	4	1	1	0.012400	0
11	pink1	0.200000	0.037503	0.950000	100.000000	0.200000	1	1	8	1	1	0.259730	0
12	pink1	0.200000	0.050000	0.950000	100.000000	0.200000	1	0	31	0	1	0.260770	0
13	pink1	0.200000	0.000010	0.950000	100.000000	0.200000	1	0	19	1	0	0.204370	0
14	pink1	0.200000	0.037503	0.950000	100.000000	0.200000	1	1	35	1	1	-0.001200	0
15	pink1	0.200000	0.025005	0.950000	100.000000	0.200000	0	1	18	0	0	0.268210	0
16	pink1	0.200000	0.037503	0.950000	100.000000	0.200000	1	1	16	1	1	0.288390	0
17	pink1	0.200000	0.000010	0.950000	100.000000	0.200000	0	0	26	1	0	0.124530	0
18	pink1	0.200000	0.037503	0.950000	100.000000	0.200000	0	0	30	0	1	0.297890	0
19	pink1	0.200000	0.037503	0.950000	100.000000	0.200000	0	1	36	1	1	0.033750	0
20	pink1	0.200000	0.000010	0.950000	100.000000	0.200000	1	0	7	1	0	0.171650	0
21	pink1	0.200000	0.037503	0.950000	100.000000	0.200000	1	1	11	1	1	0.019620	0
22	pink1	0.200000	0.012507	0.950000	100.000000	0.200000	0	0	7	1	0	0.227970	0
23	pink1	0.200000	0.000010	0.950000	100.000000	0.200000	1	1	30	1	1	0.115620	0
24	pink1	0.200000	0.050000	0.950000	100.000000	0.200000	0	0	32	0	1	-0.001620	0
25	pink1	0.200000	0.025005	0.950000	100.000000	0.200000	1	1	22	1	1	0.035840	0
26	pink1	0.200000	0.050000	0.950000	100.000000	0.200000	0	0	5	0	1	0.069460	0
27	pink1	0.200000	0.012507	0.950000	100.000000	0.200000	0	1	22	1	1	0.106200	0
28	pink1	0.200000	0.037503	0.950000	100.000000	0.200000	0	0	12	0	1	0.047430	0
29	pink1	0.200000	0.025005	0.950000	100.000000	0.200000	0	1	12	1	1	0.046860	0
30	pink1	0.200000	0.025005	0.950000	100.000000	0.200000	1	1	2	1	1	0.001310	0
31	pink1	0.200000	0.025005	0.950000	100.000000	0.200000	0	1	9	1	1	0.068400	0
32	pink1	0.200000	0.012507	0.950000	100.000000	0.200000	0	0	39	1	0	0.027020	0
33	pink1	0.200000	0.012507	0.950000	100.000000	0.200000	1	0	25	0	1	0.141250	0
34	pink1	0.200000	0.012507	0.950000	100.000000	0.200000	0	0	38	0	1	0.070980	0
35	pink1	0.200000	0.025005	0.950000	100.000000	0.200000	1	1	9	1	1	0.001040	0
36	pink1	0.200000	0.012507	0.950000	100.000000	0.200000	1	0	11	1	0	0.077410	0
37	pink1	0.200000	0.037503	0.950000	100.000000	0.200000	1	1	38	1	1	0.034950	0
38	pink1	0.200000	0.025005	0.950000	100.000000	0.200000	0	0	31	0	1	0.032790	0
39	pink1	0.200000	0.012507	0.950000	100.000000	0.200000	0	0	7	0	1	0.351430	0
40	pink1	0.200000	0.050000	0.950000	100.000000	0.200000	1	1	22	1	1	0.303310	0
41	pink1	0.200000	0.025005	0.950000	100.000000	0.200000	1	1	38	1	1	0.038140	0
42	pink1	0.200000	0.050000	0.950000	100.000000	0.200000	0	0	7	0	1	0.037950	0
43	pink1	0.200000	0.050000	0.950000	100.000000	0.200000	1	1	31	1	1	0.000780	0
44	pink1	0.200000	0.050000	0.950000	100.000000	0.200000	1	1	8	1	1	0.017530	0
45	pink1	0.200000	0.012507	0.950000	100.000000	0.200000	0	1	33	0	0	0.084130	0
46	pink1	0.200000	0.037503	0.950000	100.000000	0.200000	0	0	20	0	1	0.034830	0
47	pink1	0.200000	0.012507	0.950000	100.000000	0.200000	1	1	10	0	0	0.109320	0
48	pink1	0.200000	0.012507	0.950000	100.000000	0.200000	1	1	1	0	0	0.204780	0
49	pink1	0.200000	0.025005	0.950000	100.000000	0.200000	1	1	5	1	1	0.166120	0
50	pink1	0.200000	0.025005	0.950000	100.000000	0.200000	1	1	0	1	1	0.082790	0
51	pink1	0.200000	0.025005	0.950000	100.000000	0.200000	0	0	34	0	1	0.083820	0
52	pink1	0.200000	0.000010	0.950000	100.000000	0.200000	1	0	6	0	1	0.235080	0
53	pink1	0.200000	0.037503	0.950000	100.000000	0.200000	1	0	14	0	1	0.020660	0
54	pink1	0.200000	0.000010	0.950000	100.000000	0.200000	1	1	24	1	1	0.379210	0
55	pink1	0.200000	0.025005	0.950000	100.000000	0.200000	1	1	32	1	1	0.012700	0
56	pink1	0.200000	0.000010	0.950000	100.000000	0.200000	0	1	13	1	1	0.080090	0
57	pink1	0.200000	0.012507	0.950000	100.000000	0.200000	0	0	17	0	1	0.172450	0
58	pink1	0.200000	0.050000	0.950000	100.000000	0.200000	0	1	30	1	1	0.032850	0
59	pink1	0.200000	0.050000	0.950000	100.000000	0.200000	0	1	15	1	1	0.327850	0
60	pink1	0.200000	0.037503	0.950000	100.000000	0.200000	1	0	38	0	1	0.071210	0
61	pink1	0.200000	0.012507	0.950000	100.000000	0.200000	1	0	7	1	0	0.141960	0
62	pink1	0.200000	0.037503	0.950000	100.000000	0.200000	0	0	26	0	1	0.016410	0
63	pink1	0.200000	0.000010	0.950000	100.000000	0.200000	1	1	13	0	0	0.211650	0
64	pink1	0.200000	0.000010	0.950000	100.000000	0.200000	1	0	4	0	1	0.214930	0
65	pink1	0.200000	0.000010	0.950000	100.000000	0.200000	0	1	6	0	0	0.126690	0
66	pink1	0.200000	0.037503	0.950000	100.000000	0.200000	1	0	10	0	1	0.040900	0
67	pink1	0.200000	0.012507	0.950000	100.000000	0.200000	1	1	13	0	0	0.182230	0
68	pink1	0.200000	0.050000	0.950000	100.000000	0.200000	0	1	15	1	1	0.036790	0
69	pink1	0.200000	0.050000	0.950000	100.000000	0.200000	0	1	35	1	1	0.038170	0
70	pink1	0.200000	0.037503	0.950000	100.000000	0.200000	0	0	37	0	1	0.083550	0
71	pink1	0.200000	0.000010	0.950000	100.000000	0.200000	0	1	17	0	0	0.191170	0
72	pink1	0.200000	0.012507	0.950000	100.000000	0.200000	1	1	10	0	0	0.106870	0
73	pink1	0.200000	0.050000	0.950000	100.000000	0.200000	0	0	10	0	1	0.042750	0
74	pink1	0.200000	0.050000	0.950000	100.000000	0.200000	1	1	15	1	1	0.392440	0
75	pink1	0.200000	0.000010	0.950000	100.000000	0.200000	0	1	35	1	1	0.222980	0
76	pink1	0.200000	0.025005	0.950000	100.000000	0.200000	1	1	39	1	1	0.078840	0
77	pink1	0.200000	0.025005	0.950000	100.000000	0.200000	1	1	35	1	1	-0.001390	0
78	pink1	0.200000	0.025005	0.950000	100.000000	0.200000	1	1	9	1	1	0.047390	0
79	pink1	0.200000	0.050000	0.950000	100.000000	0.200000	0	1	18	1	1	0.028670	0
80	pink1	0.200000	0.025005	0.950000	100.000000	0.200000	1	0	7	1	0	0.056100	0
81	pink1	0.200000	0.050000	0.950000	100.000000	0.200000	1	0	1	0	1	0.015100	0
82	pink1	0.200000	0.000010	0.950000	100.000000	0.200000	0	0	31	0	1	0.051100	0
83	pink1	0.200000	0.000010	0.950000	100.000000	0.200000	0	0	16	0	1	0.118680	0
84	pink1	0.200000	0.037503	0.950000	100.000000	0.200000	1	1	14	1	1	0.306770	0
85	pink1	0.200000	0.000010	0.950000	100.000000	0.200000	0	1	13	1	1	0.026030	0
86	pink1	0.200000	0.012507	0.950000	100.000000	0.200000	1	1	4	0	0	0.099690	0
87	pink1	0.200000	0.037503	0.950000	100.000000	0.200000	0	0	23	0	1	0.012330	0
88	pink1	0.200000	0.037503	0.950000	100.000000	0.200000	0	0	21	0	1	0.318170	0
89	pink1	0.200000	0.000010	0.950000	100.000000	0.200000	1	1	19	0	0	0.041550	0
90	pink1	0.200000	0.050000	0.950000	100.000000	0.200000	1	0	23	0	1	0.042100	0
91	pink1	0.200000	0.012507	0.950000	100.000000	0.200000	0	1	17	0	0	0.014820	0
92	pink1	0.200000	0.012507	0.950000	100.000000	0.200000	0	0	19	0	1	0.050100	0
93	pink1	0.200000	0.025005	0.950000	100.000000	0.200000	1	0	36	0	1	0.027870	0
94	pink1	0.200000	0.050000	0.950000	100.000000	0.200000	1	1	29	1	1	0.016200	0
95	pink1	0.200000	0.025005	0.950000	100.000000	0.200000	0	0	18	0	1	0.079900	0
96	pink1	0.200000	0.012507	0.950000	100.000000	0.200000	0	0	30	0	1	0.105910	0
97	pink1	0.200000	0.025005	0.950000	100.000000	0.200000	0	0	22	0	1	0.009970	0
98	pink1	0.200000	0.050000	0.950000	100.000000	0.200000	1	1	16	1	1	0.566920	0
99	pink1	0.200000	0.000010	0.950000	100.000000	0.200000	1	0	35	1	0	0.018190	0
