trial	noise	noise_contrast	edge_contrast	edge_width	mean_lum	stim_time	rotID	transID	maskID	resp	correct	resptime	dropframes
0	white	0.200000	0.006255	0.150000	100.000000	0.200000	0	1	19	1	1	0.000870	0
1	white	0.200000	0.012500	0.150000	100.000000	0.200000	1	1	26	1	1	0.011230	0
2	white	0.200000	0.006255	0.150000	100.000000	0.200000	1	0	29	0	1	0.040120	0
3	white	0.200000	0.012500	0.150000	100.000000	0.200000	0	0	12	0	1	0.011430	0
4	white	0.200000	0.006255	0.150000	100.000000	0.200000	0	1	13	1	1	0.055680	0
5	white	0.200000	0.006255	0.150000	100.000000	0.200000	0	1	29	1	1	0.042870	0
6	white	0.200000	0.000010	0.150000	100.000000	0.200000	0	0	4	1	0	0.338850	0
7	white	0.200000	0.012500	0.150000	100.000000	0.200000	1	1	25	1	1	0.001640	0
8	white	0.200000	0.006255	0.150000	100.000000	0.200000	0	1	22	1	1	0.031230	0
9	white	0.200000	0.000010	0.150000	100.000000	0.200000	0	0	21	0	1	0.045290	0
10	white	0.200000	0.000010	0.150000	100.000000	0.200000	0	0	39	0	1	0.150280	0
11	white	0.200000	0.009378	0.150000	100.000000	0.200000	1	1	39	1	1	0.016580	0
12	white	0.200000	0.009378	0.150000	100.000000	0.200000	0	1	9	1	1	0.038020	0
13	white	0.200000	0.003133	0.150000	100.000000	0.200000	0	0	38	0	1	0.037910	0
14	white	0.200000	0.003133	0.150000	100.000000	0.200000	1	0	19	1	0	0.140890	0
15	white	0.200000	0.000010	0.150000	100.000000	0.200000	0	0	0	0	1	0.265390	0
16	white	0.200000	0.012500	0.150000	100.000000	0.200000	1	0	17	0	1	0.050340	0
17	white	0.200000	0.000010	0.150000	100.000000	0.200000	0	0	32	0	1	0.022640	0
18	white	0.200000	0.000010	0.150000	100.000000	0.200000	0	0	27	1	0	0.228350	0
19	white	0.200000	0.003133	0.150000	100.000000	0.200000	1	0	12	0	1	0.131150	0
20	white	0.200000	0.012500	0.150000	100.000000	0.200000	1	1	23	1	1	0.016020	0
21	white	0.200000	0.009378	0.150000	100.000000	0.200000	1	1	10	1	1	0.007700	0
22	white	0.200000	0.006255	0.150000	100.000000	0.200000	1	0	26	0	1	0.039130	0
23	white	0.200000	0.012500	0.150000	100.000000	0.200000	0	0	11	0	1	0.042870	0
24	white	0.200000	0.009378	0.150000	100.000000	0.200000	0	1	4	1	1	0.122880	0
25	white	0.200000	0.000010	0.150000	100.000000	0.200000	0	1	6	1	1	0.130880	0
26	white	0.200000	0.012500	0.150000	100.000000	0.200000	1	0	19	0	1	0.058360	0
27	white	0.200000	0.009378	0.150000	100.000000	0.200000	1	0	22	0	1	0.084600	0
28	white	0.200000	0.000010	0.150000	100.000000	0.200000	1	0	18	0	1	0.094170	0
29	white	0.200000	0.003133	0.150000	100.000000	0.200000	0	0	9	0	1	0.056890	0
30	white	0.200000	0.009378	0.150000	100.000000	0.200000	1	1	7	1	1	0.004110	0
31	white	0.200000	0.003133	0.150000	100.000000	0.200000	0	0	16	1	0	0.119590	0
32	white	0.200000	0.003133	0.150000	100.000000	0.200000	1	0	39	1	0	0.119550	0
33	white	0.200000	0.009378	0.150000	100.000000	0.200000	0	1	2	1	1	0.316560	0
34	white	0.200000	0.003133	0.150000	100.000000	0.200000	0	0	38	1	0	0.103690	0
35	white	0.200000	0.000010	0.150000	100.000000	0.200000	1	1	23	1	1	0.055160	0
36	white	0.200000	0.009378	0.150000	100.000000	0.200000	1	0	6	0	1	0.039140	0
37	white	0.200000	0.000010	0.150000	100.000000	0.200000	0	1	30	0	0	0.186270	0
38	white	0.200000	0.009378	0.150000	100.000000	0.200000	0	1	36	1	1	0.015970	0
39	white	0.200000	0.006255	0.150000	100.000000	0.200000	0	1	26	1	1	0.295060	0
40	white	0.200000	0.006255	0.150000	100.000000	0.200000	0	0	37	1	0	0.077210	0
41	white	0.200000	0.006255	0.150000	100.000000	0.200000	0	0	34	0	1	0.077430	0
42	white	0.200000	0.003133	0.150000	100.000000	0.200000	1	0	4	0	1	0.102110	0
43	white	0.200000	0.009378	0.150000	100.000000	0.200000	1	1	24	1	1	0.009300	0
44	white	0.200000	0.006255	0.150000	100.000000	0.200000	1	0	39	1	0	0.049470	0
45	white	0.200000	0.003133	0.150000	100.000000	0.200000	1	0	0	0	1	0.078970	0
46	white	0.200000	0.006255	0.150000	100.000000	0.200000	0	0	17	0	1	0.096990	0
47	white	0.200000	0.006255	0.150000	100.000000	0.200000	1	0	15	0	1	0.108960	0
48	white	0.200000	0.012500	0.150000	100.000000	0.200000	0	1	14	1	1	0.000410	0
49	white	0.200000	0.006255	0.150000	100.000000	0.200000	0	1	10	1	1	0.014560	0
50	white	0.200000	0.003133	0.150000	100.000000	0.200000	0	1	28	1	1	-0.001980	0
51	white	0.200000	0.009378	0.150000	100.000000	0.200000	1	1	33	1	1	0.043810	0
52	white	0.200000	0.003133	0.150000	100.000000	0.200000	0	1	16	1	1	0.117210	0
53	white	0.200000	0.000010	0.150000	100.000000	0.200000	1	1	3	1	1	0.297490	0
54	white	0.200000	0.003133	0.150000	100.000000	0.200000	0	0	6	1	0	0.066330	0
55	white	0.200000	0.000010	0.150000	100.000000	0.200000	0	1	11	0	0	0.021580	0
56	white	0.200000	0.000010	0.150000	100.000000	0.200000	1	1	16	1	1	0.060810	0
57	white	0.200000	0.009378	0.150000	100.000000	0.200000	1	0	7	0	1	0.037220	0
58	white	0.200000	0.012500	0.150000	100.000000	0.200000	1	0	33	0	1	0.025020	0
59	white	0.200000	0.009378	0.150000	100.000000	0.200000	0	0	0	0	1	0.000920	0
60	white	0.200000	0.003133	0.150000	100.000000	0.200000	0	0	13	1	0	0.233940	0
61	white	0.200000	0.009378	0.150000	100.000000	0.200000	0	0	37	0	1	-0.001790	0
62	white	0.200000	0.000010	0.150000	100.000000	0.200000	0	0	3	0	1	0.022730	0
63	white	0.200000	0.012500	0.150000	100.000000	0.200000	0	1	6	1	1	0.005100	0
64	white	0.200000	0.003133	0.150000	100.000000	0.200000	1	0	4	0	1	0.037250	0
65	white	0.200000	0.012500	0.150000	100.000000	0.200000	0	1	24	1	1	0.021970	0
66	white	0.200000	0.006255	0.150000	100.000000	0.200000	0	0	11	0	1	0.007240	0
67	white	0.200000	0.009378	0.150000	100.000000	0.200000	1	1	39	1	1	0.609000	0
68	white	0.200000	0.012500	0.150000	100.000000	0.200000	0	0	13	0	1	0.360970	0
69	white	0.200000	0.006255	0.150000	100.000000	0.200000	1	1	12	1	1	0.015650	0
70	white	0.200000	0.003133	0.150000	100.000000	0.200000	0	1	27	1	1	0.060490	0
71	white	0.200000	0.006255	0.150000	100.000000	0.200000	1	1	32	1	1	0.005890	0
72	white	0.200000	0.003133	0.150000	100.000000	0.200000	0	0	21	0	1	0.094240	0
73	white	0.200000	0.000010	0.150000	100.000000	0.200000	0	0	16	0	1	0.037270	0
74	white	0.200000	0.006255	0.150000	100.000000	0.200000	1	1	33	1	1	0.213180	0
75	white	0.200000	0.003133	0.150000	100.000000	0.200000	1	1	11	0	0	0.018020	0
76	white	0.200000	0.006255	0.150000	100.000000	0.200000	1	1	8	1	1	0.299830	0
77	white	0.200000	0.012500	0.150000	100.000000	0.200000	0	1	38	1	1	0.020340	0
78	white	0.200000	0.009378	0.150000	100.000000	0.200000	0	1	22	1	1	0.065880	0
79	white	0.200000	0.012500	0.150000	100.000000	0.200000	0	1	22	1	1	0.033380	0
80	white	0.200000	0.003133	0.150000	100.000000	0.200000	1	1	26	0	0	0.261690	0
81	white	0.200000	0.003133	0.150000	100.000000	0.200000	0	1	22	1	1	0.046990	0
82	white	0.200000	0.012500	0.150000	100.000000	0.200000	0	1	13	1	1	0.038470	0
83	white	0.200000	0.006255	0.150000	100.000000	0.200000	0	0	35	1	0	0.058170	0
84	white	0.200000	0.012500	0.150000	100.000000	0.200000	0	0	22	0	1	0.324480	0
85	white	0.200000	0.000010	0.150000	100.000000	0.200000	1	1	3	0	0	0.362760	0
86	white	0.200000	0.009378	0.150000	100.000000	0.200000	0	0	20	0	1	0.011140	0
87	white	0.200000	0.000010	0.150000	100.000000	0.200000	0	0	20	0	1	0.069510	0
88	white	0.200000	0.000010	0.150000	100.000000	0.200000	1	1	38	0	0	0.563950	0
89	white	0.200000	0.012500	0.150000	100.000000	0.200000	0	0	26	0	1	0.005160	0
90	white	0.200000	0.000010	0.150000	100.000000	0.200000	1	1	28	1	1	0.027670	0
91	white	0.200000	0.000010	0.150000	100.000000	0.200000	0	1	25	1	1	0.222880	0
92	white	0.200000	0.009378	0.150000	100.000000	0.200000	0	0	34	0	1	0.001840	0
93	white	0.200000	0.012500	0.150000	100.000000	0.200000	0	1	9	1	1	0.022270	0
94	white	0.200000	0.009378	0.150000	100.000000	0.200000	1	1	36	1	1	0.012640	0
95	white	0.200000	0.009378	0.150000	100.000000	0.200000	0	1	21	1	1	0.042930	0
96	white	0.200000	0.006255	0.150000	100.000000	0.200000	1	1	30	1	1	0.110930	0
97	white	0.200000	0.012500	0.150000	100.000000	0.200000	0	0	12	0	1	0.315510	0
98	white	0.200000	0.003133	0.150000	100.000000	0.200000	0	1	19	1	1	0.070320	0
99	white	0.200000	0.012500	0.150000	100.000000	0.200000	0	1	37	1	1	0.058530	0
