trial	noise	noise_contrast	edge_contrast	edge_width	mean_lum	stim_time	rotID	transID	maskID	resp	correct	resptime	dropframes
0	none	0.200000	0.002253	0.048000	100.000000	0.200000	1	1	20	1	1	0.190680	0
1	none	0.200000	0.000010	0.048000	100.000000	0.200000	0	1	22	1	1	0.558140	0
2	none	0.200000	0.000758	0.048000	100.000000	0.200000	0	0	30	1	0	0.452360	0
3	none	0.200000	0.001505	0.048000	100.000000	0.200000	1	0	2	1	0	0.175390	0
4	none	0.200000	0.000010	0.048000	100.000000	0.200000	1	1	12	1	1	0.142600	0
5	none	0.200000	0.001505	0.048000	100.000000	0.200000	0	1	17	1	1	0.163420	0
6	none	0.200000	0.003000	0.048000	100.000000	0.200000	1	1	4	1	1	0.097300	0
7	none	0.200000	0.000758	0.048000	100.000000	0.200000	0	0	16	1	0	0.209730	0
8	none	0.200000	0.002253	0.048000	100.000000	0.200000	1	1	1	1	1	0.197180	0
9	none	0.200000	0.000758	0.048000	100.000000	0.200000	0	0	23	1	0	0.246110	0
10	none	0.200000	0.002253	0.048000	100.000000	0.200000	0	1	10	1	1	0.090840	0
11	none	0.200000	0.002253	0.048000	100.000000	0.200000	0	1	38	1	1	0.112240	0
12	none	0.200000	0.002253	0.048000	100.000000	0.200000	1	0	10	0	1	0.230380	0
13	none	0.200000	0.000010	0.048000	100.000000	0.200000	1	0	34	1	0	0.246320	0
14	none	0.200000	0.000010	0.048000	100.000000	0.200000	0	1	24	1	1	0.222040	0
15	none	0.200000	0.001505	0.048000	100.000000	0.200000	0	1	4	1	1	0.601910	0
16	none	0.200000	0.002253	0.048000	100.000000	0.200000	0	0	17	0	1	0.253840	0
17	none	0.200000	0.001505	0.048000	100.000000	0.200000	1	0	34	0	1	0.254050	0
18	none	0.200000	0.002253	0.048000	100.000000	0.200000	0	1	14	1	1	0.123910	0
19	none	0.200000	0.002253	0.048000	100.000000	0.200000	1	1	12	1	1	0.066630	0
20	none	0.200000	0.003000	0.048000	100.000000	0.200000	0	1	9	1	1	0.037600	0
21	none	0.200000	0.000758	0.048000	100.000000	0.200000	0	0	23	1	0	0.140590	0
22	none	0.200000	0.000010	0.048000	100.000000	0.200000	1	0	5	1	0	0.179090	0
23	none	0.200000	0.003000	0.048000	100.000000	0.200000	1	1	36	1	1	0.083230	0
24	none	0.200000	0.003000	0.048000	100.000000	0.200000	1	1	35	1	1	0.031960	0
25	none	0.200000	0.000010	0.048000	100.000000	0.200000	1	0	30	1	0	0.448770	0
26	none	0.200000	0.000758	0.048000	100.000000	0.200000	1	1	5	1	1	0.225850	0
27	none	0.200000	0.000010	0.048000	100.000000	0.200000	0	0	18	0	1	0.401070	0
28	none	0.200000	0.000010	0.048000	100.000000	0.200000	0	1	8	1	1	0.370330	0
29	none	0.200000	0.003000	0.048000	100.000000	0.200000	1	1	14	1	1	0.090830	0
30	none	0.200000	0.000758	0.048000	100.000000	0.200000	1	0	20	0	1	0.356110	0
31	none	0.200000	0.000758	0.048000	100.000000	0.200000	0	1	4	1	1	0.223960	0
32	none	0.200000	0.001505	0.048000	100.000000	0.200000	1	0	20	0	1	0.304320	0
33	none	0.200000	0.000010	0.048000	100.000000	0.200000	0	1	22	1	1	0.093560	0
34	none	0.200000	0.000758	0.048000	100.000000	0.200000	1	0	32	1	0	0.125310	0
35	none	0.200000	0.003000	0.048000	100.000000	0.200000	0	0	38	0	1	0.161640	0
36	none	0.200000	0.003000	0.048000	100.000000	0.200000	1	1	3	1	1	0.063420	0
37	none	0.200000	0.002253	0.048000	100.000000	0.200000	0	0	4	0	1	0.207510	0
38	none	0.200000	0.000010	0.048000	100.000000	0.200000	1	1	15	1	1	0.333140	0
39	none	0.200000	0.002253	0.048000	100.000000	0.200000	0	1	3	1	1	0.055560	0
40	none	0.200000	0.002253	0.048000	100.000000	0.200000	0	0	9	0	1	0.373810	0
41	none	0.200000	0.001505	0.048000	100.000000	0.200000	1	1	6	1	1	0.251080	0
42	none	0.200000	0.002253	0.048000	100.000000	0.200000	1	1	2	1	1	0.125150	0
43	none	0.200000	0.003000	0.048000	100.000000	0.200000	0	1	26	1	1	0.047240	0
44	none	0.200000	0.003000	0.048000	100.000000	0.200000	1	1	32	1	1	0.051470	0
45	none	0.200000	0.001505	0.048000	100.000000	0.200000	0	0	32	1	0	0.555310	0
46	none	0.200000	0.000758	0.048000	100.000000	0.200000	1	0	17	1	0	0.052650	0
47	none	0.200000	0.001505	0.048000	100.000000	0.200000	1	0	4	1	0	0.152180	0
48	none	0.200000	0.001505	0.048000	100.000000	0.200000	0	1	14	1	1	0.196100	0
49	none	0.200000	0.001505	0.048000	100.000000	0.200000	0	0	5	1	0	0.302390	0
50	none	0.200000	0.002253	0.048000	100.000000	0.200000	0	1	17	1	1	0.144420	0
51	none	0.200000	0.000758	0.048000	100.000000	0.200000	0	1	16	1	1	0.238820	0
52	none	0.200000	0.000010	0.048000	100.000000	0.200000	1	1	8	0	0	0.816330	0
53	none	0.200000	0.001505	0.048000	100.000000	0.200000	1	0	25	1	0	0.057110	0
54	none	0.200000	0.000010	0.048000	100.000000	0.200000	0	1	1	1	1	0.309160	0
55	none	0.200000	0.000010	0.048000	100.000000	0.200000	1	0	33	1	0	0.102930	0
56	none	0.200000	0.001505	0.048000	100.000000	0.200000	1	1	23	1	1	0.404340	0
57	none	0.200000	0.001505	0.048000	100.000000	0.200000	0	1	13	1	1	0.311610	0
58	none	0.200000	0.003000	0.048000	100.000000	0.200000	1	0	7	0	1	0.098700	0
59	none	0.200000	0.003000	0.048000	100.000000	0.200000	1	0	21	0	1	0.097050	0
60	none	0.200000	0.002253	0.048000	100.000000	0.200000	1	0	28	0	1	0.212540	0
61	none	0.200000	0.000758	0.048000	100.000000	0.200000	0	1	6	0	0	0.510570	0
62	none	0.200000	0.002253	0.048000	100.000000	0.200000	1	1	12	1	1	0.105620	0
63	none	0.200000	0.001505	0.048000	100.000000	0.200000	0	1	19	1	1	0.252790	0
64	none	0.200000	0.000010	0.048000	100.000000	0.200000	0	1	18	1	1	0.291200	0
65	none	0.200000	0.000758	0.048000	100.000000	0.200000	1	0	22	1	0	0.268560	0
66	none	0.200000	0.002253	0.048000	100.000000	0.200000	1	1	36	1	1	0.207100	0
67	none	0.200000	0.000758	0.048000	100.000000	0.200000	1	0	28	1	0	0.195310	0
68	none	0.200000	0.001505	0.048000	100.000000	0.200000	0	0	16	1	0	0.077780	0
69	none	0.200000	0.000758	0.048000	100.000000	0.200000	0	0	24	0	1	0.917580	0
70	none	0.200000	0.000010	0.048000	100.000000	0.200000	0	0	29	1	0	0.241660	0
71	none	0.200000	0.002253	0.048000	100.000000	0.200000	0	1	18	1	1	0.035830	1
72	none	0.200000	0.003000	0.048000	100.000000	0.200000	1	0	11	0	1	0.134680	0
73	none	0.200000	0.000758	0.048000	100.000000	0.200000	1	0	13	1	0	0.303960	0
74	none	0.200000	0.003000	0.048000	100.000000	0.200000	1	1	26	1	1	0.045820	0
75	none	0.200000	0.003000	0.048000	100.000000	0.200000	1	1	9	1	1	0.093810	0
76	none	0.200000	0.001505	0.048000	100.000000	0.200000	1	0	34	0	1	0.331390	0
77	none	0.200000	0.003000	0.048000	100.000000	0.200000	1	1	6	1	1	0.038740	0
78	none	0.200000	0.001505	0.048000	100.000000	0.200000	1	0	2	0	1	0.074760	0
79	none	0.200000	0.000010	0.048000	100.000000	0.200000	0	0	10	1	0	0.651490	0
80	none	0.200000	0.002253	0.048000	100.000000	0.200000	1	1	25	1	1	0.104630	0
81	none	0.200000	0.002253	0.048000	100.000000	0.200000	0	0	21	0	1	0.253250	0
82	none	0.200000	0.001505	0.048000	100.000000	0.200000	1	1	11	1	1	0.464260	0
83	none	0.200000	0.001505	0.048000	100.000000	0.200000	0	1	23	1	1	0.075100	0
84	none	0.200000	0.000758	0.048000	100.000000	0.200000	1	0	28	0	1	0.528830	0
85	none	0.200000	0.000010	0.048000	100.000000	0.200000	0	0	16	0	1	0.285030	0
86	none	0.200000	0.003000	0.048000	100.000000	0.200000	1	1	3	1	1	0.057970	0
87	none	0.200000	0.003000	0.048000	100.000000	0.200000	0	1	19	1	1	0.025520	0
88	none	0.200000	0.000010	0.048000	100.000000	0.200000	0	0	36	1	0	0.444200	0
89	none	0.200000	0.003000	0.048000	100.000000	0.200000	0	1	0	1	1	0.018630	0
90	none	0.200000	0.002253	0.048000	100.000000	0.200000	0	1	21	1	1	0.040400	0
91	none	0.200000	0.000758	0.048000	100.000000	0.200000	0	1	11	0	0	0.339840	0
92	none	0.200000	0.000010	0.048000	100.000000	0.200000	0	1	28	0	0	0.313310	0
93	none	0.200000	0.003000	0.048000	100.000000	0.200000	0	0	13	0	1	0.084180	0
94	none	0.200000	0.000758	0.048000	100.000000	0.200000	1	0	31	1	0	0.260360	0
95	none	0.200000	0.000010	0.048000	100.000000	0.200000	0	1	36	1	1	0.180550	0
96	none	0.200000	0.001505	0.048000	100.000000	0.200000	1	1	36	1	1	0.105070	0
97	none	0.200000	0.000758	0.048000	100.000000	0.200000	0	1	39	1	1	0.278060	0
98	none	0.200000	0.000758	0.048000	100.000000	0.200000	0	1	36	1	1	0.202630	0
99	none	0.200000	0.003000	0.048000	100.000000	0.200000	1	0	30	0	1	0.100700	0
