trial	noise	noise_contrast	edge_contrast	edge_width	mean_lum	stim_time	rotID	transID	maskID	resp	correct	resptime	dropframes
0	narrow0.5	0.200000	0.005627	0.950000	100.000000	0.200000	0	1	21	1	1	0.177350	0
1	narrow0.5	0.200000	0.001883	0.950000	100.000000	0.200000	0	0	1	0	1	0.203770	0
2	narrow0.5	0.200000	0.005627	0.950000	100.000000	0.200000	0	0	31	0	1	0.105200	0
3	narrow0.5	0.200000	0.007500	0.950000	100.000000	0.200000	1	0	4	0	1	0.000000	0
4	narrow0.5	0.200000	0.000010	0.950000	100.000000	0.200000	1	1	22	1	1	0.325590	0
5	narrow0.5	0.200000	0.005627	0.950000	100.000000	0.200000	1	0	31	0	1	0.199840	0
6	narrow0.5	0.200000	0.001883	0.950000	100.000000	0.200000	0	1	8	1	1	0.339370	0
7	narrow0.5	0.200000	0.007500	0.950000	100.000000	0.200000	1	0	38	0	1	0.071000	0
8	narrow0.5	0.200000	0.000010	0.950000	100.000000	0.200000	0	1	25	0	0	0.024060	0
9	narrow0.5	0.200000	0.000010	0.950000	100.000000	0.200000	1	0	1	1	0	0.117650	0
10	narrow0.5	0.200000	0.003755	0.950000	100.000000	0.200000	1	1	36	1	1	0.093120	0
11	narrow0.5	0.200000	0.001883	0.950000	100.000000	0.200000	1	1	23	1	1	0.049360	0
12	narrow0.5	0.200000	0.001883	0.950000	100.000000	0.200000	1	1	18	1	1	0.066560	0
13	narrow0.5	0.200000	0.007500	0.950000	100.000000	0.200000	0	1	38	1	1	0.008270	0
14	narrow0.5	0.200000	0.007500	0.950000	100.000000	0.200000	1	1	21	1	1	0.046100	0
15	narrow0.5	0.200000	0.005627	0.950000	100.000000	0.200000	0	1	4	1	1	0.005600	0
16	narrow0.5	0.200000	0.000010	0.950000	100.000000	0.200000	1	1	15	1	1	0.273470	0
17	narrow0.5	0.200000	0.003755	0.950000	100.000000	0.200000	1	1	19	1	1	0.065130	0
18	narrow0.5	0.200000	0.003755	0.950000	100.000000	0.200000	1	0	8	0	1	0.092920	0
19	narrow0.5	0.200000	0.001883	0.950000	100.000000	0.200000	1	1	10	1	1	0.190520	0
20	narrow0.5	0.200000	0.000010	0.950000	100.000000	0.200000	1	0	25	0	1	0.086140	0
21	narrow0.5	0.200000	0.000010	0.950000	100.000000	0.200000	0	0	30	0	1	0.051980	0
22	narrow0.5	0.200000	0.003755	0.950000	100.000000	0.200000	0	1	15	1	1	0.222520	0
23	narrow0.5	0.200000	0.001883	0.950000	100.000000	0.200000	0	1	38	1	1	0.158850	0
24	narrow0.5	0.200000	0.003755	0.950000	100.000000	0.200000	0	1	9	1	1	0.050100	0
25	narrow0.5	0.200000	0.001883	0.950000	100.000000	0.200000	1	1	6	1	1	0.064980	0
26	narrow0.5	0.200000	0.005627	0.950000	100.000000	0.200000	0	0	7	0	1	0.054680	0
27	narrow0.5	0.200000	0.001883	0.950000	100.000000	0.200000	1	0	16	0	1	0.165930	0
28	narrow0.5	0.200000	0.005627	0.950000	100.000000	0.200000	0	1	28	1	1	0.083670	0
29	narrow0.5	0.200000	0.003755	0.950000	100.000000	0.200000	0	0	31	1	0	-0.001870	0
30	narrow0.5	0.200000	0.005627	0.950000	100.000000	0.200000	0	1	12	1	1	0.066280	0
31	narrow0.5	0.200000	0.005627	0.950000	100.000000	0.200000	0	1	8	1	1	0.041710	0
32	narrow0.5	0.200000	0.001883	0.950000	100.000000	0.200000	0	1	18	1	1	0.061640	0
33	narrow0.5	0.200000	0.005627	0.950000	100.000000	0.200000	0	1	39	1	1	0.024980	0
34	narrow0.5	0.200000	0.005627	0.950000	100.000000	0.200000	0	1	18	1	1	0.055150	0
35	narrow0.5	0.200000	0.005627	0.950000	100.000000	0.200000	0	1	3	1	1	0.047330	0
36	narrow0.5	0.200000	0.007500	0.950000	100.000000	0.200000	0	0	16	0	1	0.083020	0
37	narrow0.5	0.200000	0.001883	0.950000	100.000000	0.200000	0	1	5	0	0	0.068670	0
38	narrow0.5	0.200000	0.000010	0.950000	100.000000	0.200000	0	0	28	0	1	0.088320	0
39	narrow0.5	0.200000	0.001883	0.950000	100.000000	0.200000	1	0	12	0	1	0.108630	0
40	narrow0.5	0.200000	0.003755	0.950000	100.000000	0.200000	1	0	13	0	1	0.117920	0
41	narrow0.5	0.200000	0.000010	0.950000	100.000000	0.200000	0	1	12	0	0	0.065570	0
42	narrow0.5	0.200000	0.007500	0.950000	100.000000	0.200000	0	1	37	1	1	0.020150	0
43	narrow0.5	0.200000	0.000010	0.950000	100.000000	0.200000	1	0	10	1	0	0.064670	0
44	narrow0.5	0.200000	0.005627	0.950000	100.000000	0.200000	0	1	9	1	1	0.065540	0
45	narrow0.5	0.200000	0.005627	0.950000	100.000000	0.200000	0	1	2	1	1	0.010450	0
46	narrow0.5	0.200000	0.007500	0.950000	100.000000	0.200000	0	0	26	0	1	0.020030	0
47	narrow0.5	0.200000	0.000010	0.950000	100.000000	0.200000	0	0	14	0	1	0.189910	0
48	narrow0.5	0.200000	0.001883	0.950000	100.000000	0.200000	1	1	37	0	0	0.031580	0
49	narrow0.5	0.200000	0.003755	0.950000	100.000000	0.200000	1	0	31	0	1	0.040030	0
50	narrow0.5	0.200000	0.001883	0.950000	100.000000	0.200000	0	1	19	1	1	0.028550	0
51	narrow0.5	0.200000	0.003755	0.950000	100.000000	0.200000	1	1	37	1	1	0.066020	0
52	narrow0.5	0.200000	0.007500	0.950000	100.000000	0.200000	0	0	37	0	1	0.016130	0
53	narrow0.5	0.200000	0.005627	0.950000	100.000000	0.200000	0	1	20	1	1	0.063310	0
54	narrow0.5	0.200000	0.001883	0.950000	100.000000	0.200000	0	1	15	1	1	0.018110	0
55	narrow0.5	0.200000	0.001883	0.950000	100.000000	0.200000	1	1	26	1	1	0.034850	0
56	narrow0.5	0.200000	0.007500	0.950000	100.000000	0.200000	0	0	17	0	1	0.058370	0
57	narrow0.5	0.200000	0.007500	0.950000	100.000000	0.200000	1	1	10	1	1	0.074310	0
58	narrow0.5	0.200000	0.003755	0.950000	100.000000	0.200000	0	1	33	1	1	0.060410	0
59	narrow0.5	0.200000	0.005627	0.950000	100.000000	0.200000	1	1	6	1	1	0.032380	0
60	narrow0.5	0.200000	0.007500	0.950000	100.000000	0.200000	0	0	28	0	1	0.054520	0
61	narrow0.5	0.200000	0.000010	0.950000	100.000000	0.200000	1	0	4	1	0	0.080280	0
62	narrow0.5	0.200000	0.001883	0.950000	100.000000	0.200000	0	1	28	0	0	0.111160	0
63	narrow0.5	0.200000	0.007500	0.950000	100.000000	0.200000	1	1	14	1	1	0.015390	0
64	narrow0.5	0.200000	0.003755	0.950000	100.000000	0.200000	1	1	38	1	1	0.028680	0
65	narrow0.5	0.200000	0.001883	0.950000	100.000000	0.200000	0	1	21	1	1	0.023430	0
66	narrow0.5	0.200000	0.000010	0.950000	100.000000	0.200000	0	1	6	1	1	0.012380	0
67	narrow0.5	0.200000	0.000010	0.950000	100.000000	0.200000	1	1	13	1	1	0.051040	0
68	narrow0.5	0.200000	0.003755	0.950000	100.000000	0.200000	1	0	34	1	0	0.072990	0
69	narrow0.5	0.200000	0.007500	0.950000	100.000000	0.200000	1	0	2	0	1	0.026330	0
70	narrow0.5	0.200000	0.000010	0.950000	100.000000	0.200000	1	1	33	1	1	0.099890	0
71	narrow0.5	0.200000	0.005627	0.950000	100.000000	0.200000	0	0	24	0	1	0.080280	0
72	narrow0.5	0.200000	0.007500	0.950000	100.000000	0.200000	0	1	23	1	1	0.039130	0
73	narrow0.5	0.200000	0.005627	0.950000	100.000000	0.200000	1	0	30	0	1	0.045300	0
74	narrow0.5	0.200000	0.007500	0.950000	100.000000	0.200000	1	1	27	1	1	0.042990	0
75	narrow0.5	0.200000	0.007500	0.950000	100.000000	0.200000	0	1	8	1	1	0.048180	0
76	narrow0.5	0.200000	0.007500	0.950000	100.000000	0.200000	1	1	27	1	1	0.018320	0
77	narrow0.5	0.200000	0.003755	0.950000	100.000000	0.200000	1	1	11	1	1	0.103860	0
78	narrow0.5	0.200000	0.007500	0.950000	100.000000	0.200000	0	1	33	1	1	0.015600	0
79	narrow0.5	0.200000	0.000010	0.950000	100.000000	0.200000	0	1	31	1	1	0.444060	0
80	narrow0.5	0.200000	0.001883	0.950000	100.000000	0.200000	0	1	7	1	1	0.068780	0
81	narrow0.5	0.200000	0.003755	0.950000	100.000000	0.200000	1	0	2	0	1	0.264900	0
82	narrow0.5	0.200000	0.000010	0.950000	100.000000	0.200000	0	0	35	0	1	0.016920	0
83	narrow0.5	0.200000	0.000010	0.950000	100.000000	0.200000	0	1	22	0	0	0.038490	0
84	narrow0.5	0.200000	0.007500	0.950000	100.000000	0.200000	1	0	39	0	1	0.034350	0
85	narrow0.5	0.200000	0.000010	0.950000	100.000000	0.200000	1	1	34	0	0	0.156730	0
86	narrow0.5	0.200000	0.005627	0.950000	100.000000	0.200000	1	1	11	1	1	0.085870	0
87	narrow0.5	0.200000	0.005627	0.950000	100.000000	0.200000	0	0	2	0	1	0.087180	0
88	narrow0.5	0.200000	0.005627	0.950000	100.000000	0.200000	1	0	11	0	1	0.036980	0
89	narrow0.5	0.200000	0.007500	0.950000	100.000000	0.200000	0	0	39	0	1	0.013220	0
90	narrow0.5	0.200000	0.003755	0.950000	100.000000	0.200000	0	1	25	0	0	0.057580	0
91	narrow0.5	0.200000	0.000010	0.950000	100.000000	0.200000	0	1	3	0	0	0.158490	0
92	narrow0.5	0.200000	0.003755	0.950000	100.000000	0.200000	1	1	16	1	1	0.084060	0
93	narrow0.5	0.200000	0.001883	0.950000	100.000000	0.200000	0	1	2	1	1	0.365950	0
94	narrow0.5	0.200000	0.003755	0.950000	100.000000	0.200000	0	1	15	1	1	0.019980	0
95	narrow0.5	0.200000	0.003755	0.950000	100.000000	0.200000	0	0	5	0	1	0.133320	0
96	narrow0.5	0.200000	0.001883	0.950000	100.000000	0.200000	1	1	1	0	0	0.043060	0
97	narrow0.5	0.200000	0.003755	0.950000	100.000000	0.200000	1	1	14	1	1	0.056580	0
98	narrow0.5	0.200000	0.000010	0.950000	100.000000	0.200000	0	0	30	1	0	0.083340	0
99	narrow0.5	0.200000	0.003755	0.950000	100.000000	0.200000	0	0	39	0	1	0.049810	0
