trial	noise	noise_contrast	edge_contrast	edge_width	mean_lum	stim_time	rotID	transID	maskID	resp	correct	resptime	dropframes
0	narrow9	0.200000	0.000010	0.950000	100.000000	0.200000	0	0	38	1	0	0.302700	0
1	narrow9	0.200000	0.000010	0.950000	100.000000	0.200000	0	0	6	1	0	0.051360	0
2	narrow9	0.200000	0.000010	0.950000	100.000000	0.200000	0	1	7	0	0	0.163070	0
3	narrow9	0.200000	0.007500	0.950000	100.000000	0.200000	0	1	17	1	1	0.025650	0
4	narrow9	0.200000	0.001883	0.950000	100.000000	0.200000	1	0	4	1	0	0.053910	0
5	narrow9	0.200000	0.003755	0.950000	100.000000	0.200000	0	1	6	1	1	0.026090	0
6	narrow9	0.200000	0.000010	0.950000	100.000000	0.200000	1	0	4	1	0	0.131580	0
7	narrow9	0.200000	0.007500	0.950000	100.000000	0.200000	1	0	17	0	1	-0.000220	0
8	narrow9	0.200000	0.005627	0.950000	100.000000	0.200000	1	0	20	0	1	0.027110	0
9	narrow9	0.200000	0.005627	0.950000	100.000000	0.200000	1	1	18	1	1	0.027820	0
10	narrow9	0.200000	0.005627	0.950000	100.000000	0.200000	0	0	18	0	1	0.022710	0
11	narrow9	0.200000	0.007500	0.950000	100.000000	0.200000	0	0	5	0	1	0.055750	0
12	narrow9	0.200000	0.000010	0.950000	100.000000	0.200000	0	0	23	1	0	0.098420	0
13	narrow9	0.200000	0.005627	0.950000	100.000000	0.200000	0	1	37	1	1	0.054240	0
14	narrow9	0.200000	0.005627	0.950000	100.000000	0.200000	0	0	16	0	1	0.027820	0
15	narrow9	0.200000	0.005627	0.950000	100.000000	0.200000	0	1	14	1	1	0.014860	0
16	narrow9	0.200000	0.003755	0.950000	100.000000	0.200000	1	1	33	1	1	0.048220	0
17	narrow9	0.200000	0.001883	0.950000	100.000000	0.200000	1	0	13	0	1	0.059680	0
18	narrow9	0.200000	0.005627	0.950000	100.000000	0.200000	0	1	9	1	1	0.023980	0
19	narrow9	0.200000	0.007500	0.950000	100.000000	0.200000	1	0	20	0	1	0.034160	0
20	narrow9	0.200000	0.000010	0.950000	100.000000	0.200000	1	0	12	0	1	0.081610	0
21	narrow9	0.200000	0.001883	0.950000	100.000000	0.200000	0	0	1	1	0	0.020320	0
22	narrow9	0.200000	0.007500	0.950000	100.000000	0.200000	1	1	24	1	1	0.327750	0
23	narrow9	0.200000	0.005627	0.950000	100.000000	0.200000	1	1	27	1	1	0.039550	0
24	narrow9	0.200000	0.000010	0.950000	100.000000	0.200000	0	1	36	1	1	0.067430	0
25	narrow9	0.200000	0.001883	0.950000	100.000000	0.200000	0	1	11	1	1	0.094470	0
26	narrow9	0.200000	0.007500	0.950000	100.000000	0.200000	1	1	28	1	1	0.019040	0
27	narrow9	0.200000	0.001883	0.950000	100.000000	0.200000	0	0	28	0	1	0.041050	0
28	narrow9	0.200000	0.001883	0.950000	100.000000	0.200000	1	0	35	0	1	0.115030	0
29	narrow9	0.200000	0.003755	0.950000	100.000000	0.200000	1	0	28	0	1	0.122240	0
30	narrow9	0.200000	0.001883	0.950000	100.000000	0.200000	1	0	29	0	1	0.245860	0
31	narrow9	0.200000	0.000010	0.950000	100.000000	0.200000	0	1	34	0	0	0.263980	0
32	narrow9	0.200000	0.005627	0.950000	100.000000	0.200000	1	0	36	0	1	0.021920	0
33	narrow9	0.200000	0.005627	0.950000	100.000000	0.200000	0	1	4	1	1	0.033460	0
34	narrow9	0.200000	0.000010	0.950000	100.000000	0.200000	0	0	39	1	0	0.061040	0
35	narrow9	0.200000	0.000010	0.950000	100.000000	0.200000	1	1	17	1	1	0.028500	0
36	narrow9	0.200000	0.003755	0.950000	100.000000	0.200000	1	0	24	0	1	0.023260	0
37	narrow9	0.200000	0.007500	0.950000	100.000000	0.200000	1	1	11	1	1	0.049440	0
38	narrow9	0.200000	0.001883	0.950000	100.000000	0.200000	0	1	14	1	1	0.072890	0
39	narrow9	0.200000	0.005627	0.950000	100.000000	0.200000	0	0	20	0	1	0.033930	0
40	narrow9	0.200000	0.007500	0.950000	100.000000	0.200000	1	0	22	0	1	0.043770	0
41	narrow9	0.200000	0.007500	0.950000	100.000000	0.200000	0	1	2	1	1	0.000050	0
42	narrow9	0.200000	0.000010	0.950000	100.000000	0.200000	1	0	3	1	0	0.057960	0
43	narrow9	0.200000	0.005627	0.950000	100.000000	0.200000	1	0	5	0	1	0.015770	0
44	narrow9	0.200000	0.000010	0.950000	100.000000	0.200000	1	0	35	1	0	0.026810	0
45	narrow9	0.200000	0.003755	0.950000	100.000000	0.200000	0	0	6	0	1	0.036740	0
46	narrow9	0.200000	0.007500	0.950000	100.000000	0.200000	1	0	26	0	1	0.027540	0
47	narrow9	0.200000	0.003755	0.950000	100.000000	0.200000	1	1	2	1	1	0.015830	1
48	narrow9	0.200000	0.001883	0.950000	100.000000	0.200000	0	0	7	1	0	0.081540	0
49	narrow9	0.200000	0.003755	0.950000	100.000000	0.200000	0	0	0	0	1	0.072250	0
50	narrow9	0.200000	0.003755	0.950000	100.000000	0.200000	0	0	23	0	1	0.020140	0
51	narrow9	0.200000	0.007500	0.950000	100.000000	0.200000	1	1	3	1	1	0.038490	0
52	narrow9	0.200000	0.003755	0.950000	100.000000	0.200000	0	0	21	0	1	0.034480	0
53	narrow9	0.200000	0.003755	0.950000	100.000000	0.200000	1	1	32	1	1	0.058560	0
54	narrow9	0.200000	0.001883	0.950000	100.000000	0.200000	1	1	33	1	1	0.107430	0
55	narrow9	0.200000	0.000010	0.950000	100.000000	0.200000	1	1	19	1	1	0.080870	0
56	narrow9	0.200000	0.000010	0.950000	100.000000	0.200000	1	1	34	0	0	0.016590	0
57	narrow9	0.200000	0.007500	0.950000	100.000000	0.200000	0	1	2	1	1	0.016290	0
58	narrow9	0.200000	0.003755	0.950000	100.000000	0.200000	1	0	29	0	1	0.153920	0
59	narrow9	0.200000	0.003755	0.950000	100.000000	0.200000	1	0	3	0	1	0.228490	0
60	narrow9	0.200000	0.000010	0.950000	100.000000	0.200000	0	0	29	1	0	0.092270	0
61	narrow9	0.200000	0.003755	0.950000	100.000000	0.200000	1	1	10	1	1	0.000340	0
62	narrow9	0.200000	0.005627	0.950000	100.000000	0.200000	0	1	11	1	1	0.034160	0
63	narrow9	0.200000	0.003755	0.950000	100.000000	0.200000	0	1	26	1	1	0.074930	0
64	narrow9	0.200000	0.005627	0.950000	100.000000	0.200000	1	1	25	1	1	0.060210	0
65	narrow9	0.200000	0.000010	0.950000	100.000000	0.200000	0	1	19	1	1	0.065160	0
66	narrow9	0.200000	0.001883	0.950000	100.000000	0.200000	0	1	37	1	1	0.101570	0
67	narrow9	0.200000	0.003755	0.950000	100.000000	0.200000	1	0	5	0	1	0.042400	0
68	narrow9	0.200000	0.001883	0.950000	100.000000	0.200000	0	1	1	1	1	0.085960	0
69	narrow9	0.200000	0.007500	0.950000	100.000000	0.200000	0	0	4	0	1	0.308470	0
70	narrow9	0.200000	0.001883	0.950000	100.000000	0.200000	1	0	7	0	1	0.021150	0
71	narrow9	0.200000	0.001883	0.950000	100.000000	0.200000	0	0	30	0	1	0.043530	0
72	narrow9	0.200000	0.003755	0.950000	100.000000	0.200000	1	1	9	1	1	0.039960	0
73	narrow9	0.200000	0.003755	0.950000	100.000000	0.200000	0	1	5	1	1	0.017550	0
74	narrow9	0.200000	0.003755	0.950000	100.000000	0.200000	0	0	16	0	1	0.155670	0
75	narrow9	0.200000	0.001883	0.950000	100.000000	0.200000	1	1	14	1	1	0.286580	0
76	narrow9	0.200000	0.007500	0.950000	100.000000	0.200000	0	0	27	0	1	0.281200	0
77	narrow9	0.200000	0.003755	0.950000	100.000000	0.200000	0	1	26	1	1	0.018230	0
78	narrow9	0.200000	0.007500	0.950000	100.000000	0.200000	1	0	9	0	1	0.024670	0
79	narrow9	0.200000	0.001883	0.950000	100.000000	0.200000	1	0	13	0	1	0.244200	0
80	narrow9	0.200000	0.000010	0.950000	100.000000	0.200000	1	0	27	0	1	0.020160	0
81	narrow9	0.200000	0.001883	0.950000	100.000000	0.200000	1	1	6	1	1	0.009770	0
82	narrow9	0.200000	0.007500	0.950000	100.000000	0.200000	0	0	35	0	1	0.070920	0
83	narrow9	0.200000	0.003755	0.950000	100.000000	0.200000	1	0	26	0	1	0.096640	0
84	narrow9	0.200000	0.000010	0.950000	100.000000	0.200000	0	1	17	1	1	0.090500	0
85	narrow9	0.200000	0.007500	0.950000	100.000000	0.200000	1	0	28	0	1	0.032440	0
86	narrow9	0.200000	0.005627	0.950000	100.000000	0.200000	0	1	20	1	1	0.090480	0
87	narrow9	0.200000	0.005627	0.950000	100.000000	0.200000	1	0	32	0	1	0.127890	0
88	narrow9	0.200000	0.005627	0.950000	100.000000	0.200000	1	1	13	1	1	0.043220	0
89	narrow9	0.200000	0.001883	0.950000	100.000000	0.200000	1	0	33	0	1	0.210270	0
90	narrow9	0.200000	0.001883	0.950000	100.000000	0.200000	0	0	38	0	1	0.054850	0
91	narrow9	0.200000	0.000010	0.950000	100.000000	0.200000	0	0	3	0	1	0.077230	0
92	narrow9	0.200000	0.007500	0.950000	100.000000	0.200000	1	1	11	1	1	0.034230	0
93	narrow9	0.200000	0.005627	0.950000	100.000000	0.200000	1	1	27	1	1	0.044120	0
94	narrow9	0.200000	0.007500	0.950000	100.000000	0.200000	1	1	0	1	1	0.009390	0
95	narrow9	0.200000	0.000010	0.950000	100.000000	0.200000	1	1	30	1	1	0.075140	0
96	narrow9	0.200000	0.005627	0.950000	100.000000	0.200000	0	1	36	1	1	-0.001130	0
97	narrow9	0.200000	0.007500	0.950000	100.000000	0.200000	1	0	26	0	1	0.062330	0
98	narrow9	0.200000	0.005627	0.950000	100.000000	0.200000	0	1	18	1	1	0.015350	0
99	narrow9	0.200000	0.001883	0.950000	100.000000	0.200000	1	0	23	1	0	0.085090	0
