trial	noise	noise_contrast	edge_contrast	edge_width	mean_lum	stim_time	rotID	transID	maskID	resp	correct	resptime	dropframes
0	pink2	0.200000	0.015000	0.048000	100.000000	0.500000	1	0	12	0	1	0.160180	0
1	narrow9	0.200000	0.030000	0.048000	100.000000	0.500000	1	0	26	0	1	0.118680	0
2	none	0.200000	0.010000	0.048000	100.000000	0.500000	0	1	38	1	1	0.121420	0
3	none	0.200000	0.010000	0.150000	100.000000	0.500000	1	0	21	0	1	0.117510	0
4	pink1	0.200000	0.030000	0.150000	100.000000	0.500000	0	0	11	0	1	0.166520	0
5	narrow0.5	0.200000	0.010000	0.048000	100.000000	0.500000	0	1	3	1	1	0.110190	0
6	pink1	0.200000	0.060000	0.950000	100.000000	0.500000	1	0	38	0	1	0.095830	0
7	none	0.200000	0.010000	0.150000	100.000000	0.500000	1	1	30	1	1	0.190750	0
8	white	0.200000	0.020000	0.950000	100.000000	0.500000	0	0	10	0	1	0.137810	0
9	narrow3	0.200000	0.050000	0.950000	100.000000	0.500000	0	1	33	1	1	0.096720	0
10	narrow3	0.200000	0.025000	0.150000	100.000000	0.500000	0	1	18	1	1	0.152740	0
11	narrow9	0.200000	0.015000	0.150000	100.000000	0.500000	1	0	38	0	1	0.081490	0
12	narrow3	0.200000	0.050000	0.950000	100.000000	0.500000	0	1	6	1	1	0.091530	0
13	pink1	0.200000	0.060000	0.950000	100.000000	0.500000	1	0	28	0	1	0.055950	0
14	none	0.200000	0.010000	0.048000	100.000000	0.500000	0	0	35	0	1	0.012570	0
15	narrow0.5	0.200000	0.010000	0.048000	100.000000	0.200000	1	1	5	1	1	0.238270	0
16	pink1	0.200000	0.060000	0.950000	100.000000	0.200000	1	1	3	1	1	0.120950	0
17	narrow3	0.200000	0.020000	0.048000	100.000000	0.200000	0	0	14	0	1	0.056160	0
18	narrow3	0.200000	0.025000	0.150000	100.000000	0.200000	0	1	17	1	1	0.128610	0
19	narrow9	0.200000	0.030000	0.048000	100.000000	0.200000	0	0	15	0	1	0.136700	0
20	narrow0.5	0.200000	0.015000	0.150000	100.000000	0.200000	1	0	26	0	1	0.103200	0
21	white	0.200000	0.020000	0.950000	100.000000	0.200000	1	0	8	0	1	0.047790	0
22	narrow0.5	0.200000	0.015000	0.150000	100.000000	0.200000	1	0	5	0	1	0.079200	0
23	narrow9	0.200000	0.020000	0.950000	100.000000	0.200000	1	1	10	1	1	0.077500	0
24	narrow9	0.200000	0.020000	0.950000	100.000000	0.200000	1	1	4	1	1	0.076710	0
25	none	0.200000	0.010000	0.150000	100.000000	0.200000	0	1	4	1	1	0.106470	0
26	narrow3	0.200000	0.025000	0.150000	100.000000	0.200000	1	1	6	1	1	0.099950	0
27	pink2	0.200000	0.020000	0.950000	100.000000	0.200000	0	0	25	0	1	0.061740	0
28	none	0.200000	0.010000	0.950000	100.000000	0.200000	1	0	24	0	1	0.104350	0
29	narrow3	0.200000	0.050000	0.950000	100.000000	0.200000	0	1	26	1	1	0.122130	0
30	none	0.200000	0.010000	0.950000	100.000000	0.200000	0	1	26	1	1	0.008820	0
31	none	0.200000	0.010000	0.950000	100.000000	0.200000	0	0	1	0	1	0.032300	0
32	pink1	0.200000	0.030000	0.048000	100.000000	0.200000	1	0	15	0	1	0.032930	0
33	narrow9	0.200000	0.030000	0.048000	100.000000	0.200000	1	0	22	0	1	0.032210	0
34	narrow3	0.200000	0.050000	0.950000	100.000000	0.200000	0	0	17	0	1	0.088820	0
35	white	0.200000	0.030000	0.048000	100.000000	0.200000	0	0	30	0	1	0.025070	0
36	pink1	0.200000	0.030000	0.150000	100.000000	0.200000	0	1	19	1	1	0.073660	0
37	white	0.200000	0.020000	0.150000	100.000000	0.200000	1	0	23	0	1	0.035960	0
38	narrow3	0.200000	0.025000	0.150000	100.000000	0.200000	0	1	14	1	1	0.068010	0
39	narrow3	0.200000	0.020000	0.048000	100.000000	0.200000	0	0	31	0	1	0.056880	0
40	narrow0.5	0.200000	0.015000	0.150000	100.000000	0.200000	0	0	31	0	1	0.090570	0
41	narrow9	0.200000	0.030000	0.048000	100.000000	0.200000	1	1	6	1	1	0.074690	0
42	narrow3	0.200000	0.050000	0.950000	100.000000	0.200000	1	1	34	1	1	0.026970	0
43	pink1	0.200000	0.030000	0.048000	100.000000	0.200000	0	0	21	0	1	0.116350	0
44	none	0.200000	0.010000	0.950000	100.000000	0.200000	0	0	24	0	1	0.052790	0
45	none	0.200000	0.010000	0.950000	100.000000	0.200000	1	0	5	0	1	0.041660	0
46	narrow9	0.200000	0.030000	0.048000	100.000000	0.200000	1	0	6	0	1	0.072760	0
47	narrow3	0.200000	0.020000	0.048000	100.000000	0.200000	0	0	34	0	1	0.064100	0
48	none	0.200000	0.010000	0.150000	100.000000	0.200000	1	1	0	1	1	0.058580	0
49	narrow0.5	0.200000	0.010000	0.048000	100.000000	0.200000	1	0	17	0	1	0.048420	0
50	pink2	0.200000	0.015000	0.150000	100.000000	0.200000	0	1	37	1	1	0.033640	0
51	pink2	0.200000	0.015000	0.048000	100.000000	0.200000	0	0	22	0	1	0.038680	0
52	narrow3	0.200000	0.025000	0.150000	100.000000	0.200000	1	0	9	0	1	0.051270	0
53	narrow9	0.200000	0.030000	0.048000	100.000000	0.200000	0	1	30	1	1	0.083400	0
54	narrow3	0.200000	0.020000	0.048000	100.000000	0.200000	1	1	7	1	1	0.038600	0
55	pink2	0.200000	0.015000	0.150000	100.000000	0.200000	1	0	31	0	1	0.067910	0
56	pink1	0.200000	0.060000	0.950000	100.000000	0.200000	1	1	4	1	1	0.042180	0
57	white	0.200000	0.020000	0.150000	100.000000	0.200000	1	0	29	0	1	0.045910	0
58	pink1	0.200000	0.060000	0.950000	100.000000	0.200000	0	0	20	0	1	0.053250	0
59	white	0.200000	0.020000	0.150000	100.000000	0.200000	0	0	14	0	1	0.050540	0
