trial	noise	noise_contrast	edge_contrast	edge_width	mean_lum	stim_time	rotID	transID	maskID	resp	correct	resptime	dropframes
0	narrow0.5	0.200000	0.010000	0.048000	100.000000	0.500000	0	0	19	0	1	0.478250	0
1	narrow9	0.200000	0.020000	0.950000	100.000000	0.500000	0	0	0	0	1	0.402380	0
2	narrow9	0.200000	0.015000	0.150000	100.000000	0.500000	0	0	31	0	1	0.281040	0
3	narrow0.5	0.200000	0.015000	0.950000	100.000000	0.500000	0	1	29	1	1	0.241750	0
4	narrow0.5	0.200000	0.015000	0.150000	100.000000	0.500000	1	1	29	1	1	0.168520	0
5	narrow3	0.200000	0.025000	0.150000	100.000000	0.500000	0	0	15	0	1	0.256780	0
6	narrow9	0.200000	0.030000	0.048000	100.000000	0.500000	0	1	4	1	1	0.209450	0
7	none	0.200000	0.010000	0.150000	100.000000	0.500000	1	1	24	1	1	0.094530	0
8	pink2	0.200000	0.015000	0.150000	100.000000	0.500000	0	0	14	0	1	0.145050	0
9	narrow0.5	0.200000	0.010000	0.048000	100.000000	0.500000	1	1	3	1	1	0.134120	0
10	narrow3	0.200000	0.050000	0.950000	100.000000	0.500000	1	0	7	0	1	0.253210	0
11	narrow3	0.200000	0.050000	0.950000	100.000000	0.500000	0	1	3	1	1	0.085080	0
12	pink2	0.200000	0.015000	0.048000	100.000000	0.500000	0	0	37	0	1	0.174860	0
13	pink2	0.200000	0.020000	0.950000	100.000000	0.500000	0	0	15	0	1	0.225730	0
14	narrow9	0.200000	0.030000	0.048000	100.000000	0.500000	0	1	30	1	1	0.291890	0
15	white	0.200000	0.020000	0.150000	100.000000	0.200000	1	1	22	1	1	0.531220	0
16	white	0.200000	0.030000	0.048000	100.000000	0.200000	0	0	7	0	1	0.376400	0
17	narrow9	0.200000	0.020000	0.950000	100.000000	0.200000	0	1	34	1	1	0.429550	0
18	narrow9	0.200000	0.015000	0.150000	100.000000	0.200000	1	0	35	0	1	0.432620	0
19	narrow9	0.200000	0.030000	0.048000	100.000000	0.200000	0	0	16	0	1	0.449340	0
20	pink2	0.200000	0.020000	0.950000	100.000000	0.200000	1	1	20	1	1	0.481140	0
21	pink2	0.200000	0.015000	0.048000	100.000000	0.200000	1	1	8	1	1	0.387030	0
22	narrow0.5	0.200000	0.015000	0.150000	100.000000	0.200000	1	0	1	0	1	0.474510	0
23	none	0.200000	0.010000	0.150000	100.000000	0.200000	0	1	37	1	1	0.330800	0
24	narrow3	0.200000	0.050000	0.950000	100.000000	0.200000	0	0	28	0	1	0.402760	0
25	narrow3	0.200000	0.050000	0.950000	100.000000	0.200000	1	1	16	1	1	0.326440	0
26	narrow0.5	0.200000	0.015000	0.950000	100.000000	0.200000	0	0	13	0	1	0.445720	0
27	pink2	0.200000	0.015000	0.150000	100.000000	0.200000	0	0	14	0	1	0.383340	0
28	pink1	0.200000	0.030000	0.048000	100.000000	0.200000	1	1	29	1	1	0.274110	0
29	pink2	0.200000	0.020000	0.950000	100.000000	0.200000	1	1	32	1	1	0.464590	0
30	narrow0.5	0.200000	0.015000	0.950000	100.000000	0.200000	0	1	1	1	1	0.504500	0
31	narrow3	0.200000	0.050000	0.950000	100.000000	0.200000	1	1	20	1	1	0.513620	0
32	narrow9	0.200000	0.015000	0.150000	100.000000	0.200000	0	1	32	1	1	0.486300	0
33	narrow9	0.200000	0.015000	0.150000	100.000000	0.200000	0	0	20	0	1	0.467580	0
34	pink1	0.200000	0.060000	0.950000	100.000000	0.200000	0	1	30	1	1	0.506530	0
35	narrow3	0.200000	0.025000	0.150000	100.000000	0.200000	1	0	34	0	1	0.534910	0
36	pink2	0.200000	0.015000	0.150000	100.000000	0.200000	1	1	4	1	1	0.705470	0
37	white	0.200000	0.020000	0.950000	100.000000	0.200000	1	0	32	0	1	0.375890	0
38	narrow9	0.200000	0.015000	0.150000	100.000000	0.200000	0	1	4	1	1	0.321840	0
39	narrow3	0.200000	0.050000	0.950000	100.000000	0.200000	0	1	19	1	1	0.313190	0
40	white	0.200000	0.020000	0.150000	100.000000	0.200000	1	1	39	1	1	0.464850	0
41	narrow0.5	0.200000	0.010000	0.048000	100.000000	0.200000	1	1	26	1	1	0.266990	0
42	none	0.200000	0.010000	0.950000	100.000000	0.200000	0	0	27	0	1	0.350470	0
43	pink1	0.200000	0.030000	0.048000	100.000000	0.200000	0	1	17	1	1	0.344520	0
44	pink1	0.200000	0.060000	0.950000	100.000000	0.200000	0	1	0	1	1	0.247460	0
45	narrow0.5	0.200000	0.010000	0.048000	100.000000	0.200000	0	0	7	0	1	0.297270	0
46	none	0.200000	0.010000	0.150000	100.000000	0.200000	1	0	37	0	1	0.316190	0
47	white	0.200000	0.020000	0.950000	100.000000	0.200000	0	0	14	0	1	0.315280	0
48	narrow3	0.200000	0.020000	0.048000	100.000000	0.200000	0	0	35	0	1	0.451990	0
49	pink2	0.200000	0.015000	0.150000	100.000000	0.200000	1	0	20	0	1	0.331090	0
50	pink2	0.200000	0.015000	0.048000	100.000000	0.200000	1	0	32	0	1	0.632020	0
51	pink1	0.200000	0.030000	0.048000	100.000000	0.200000	1	0	1	0	1	0.393920	0
52	pink1	0.200000	0.030000	0.048000	100.000000	0.200000	1	0	23	0	1	0.441460	0
53	none	0.200000	0.010000	0.150000	100.000000	0.200000	0	0	38	0	1	0.341670	0
54	white	0.200000	0.030000	0.048000	100.000000	0.200000	0	0	13	0	1	0.314320	0
55	narrow9	0.200000	0.030000	0.048000	100.000000	0.200000	1	1	14	1	1	0.375270	0
56	pink1	0.200000	0.030000	0.150000	100.000000	0.200000	1	0	6	0	1	0.217970	0
57	narrow9	0.200000	0.020000	0.950000	100.000000	0.200000	0	1	6	1	1	0.237790	0
58	pink2	0.200000	0.015000	0.048000	100.000000	0.200000	1	0	9	0	1	0.322120	0
59	narrow0.5	0.200000	0.010000	0.048000	100.000000	0.200000	0	1	13	1	1	0.258420	0
