trial	noise	noise_contrast	edge_contrast	edge_width	mean_lum	stim_time	rotID	transID	maskID	resp	correct	resptime	dropframes
0	narrow0.5	0.200000	0.000010	0.950000	100.000000	0.200000	1	1	30	0	0	0.288780	0
1	narrow0.5	0.200000	0.007500	0.950000	100.000000	0.200000	0	1	26	1	1	0.399620	0
2	narrow0.5	0.200000	0.000010	0.950000	100.000000	0.200000	1	0	22	0	1	0.865440	0
3	narrow0.5	0.200000	0.007500	0.950000	100.000000	0.200000	0	1	3	1	1	0.393850	0
4	narrow0.5	0.200000	0.007500	0.950000	100.000000	0.200000	1	0	38	0	1	0.288200	0
5	narrow0.5	0.200000	0.005627	0.950000	100.000000	0.200000	0	1	39	1	1	0.350280	0
6	narrow0.5	0.200000	0.007500	0.950000	100.000000	0.200000	0	1	25	1	1	0.230800	0
7	narrow0.5	0.200000	0.003755	0.950000	100.000000	0.200000	1	1	17	0	0	0.450420	0
8	narrow0.5	0.200000	0.005627	0.950000	100.000000	0.200000	1	0	27	0	1	0.455070	0
9	narrow0.5	0.200000	0.007500	0.950000	100.000000	0.200000	0	1	30	1	1	0.252300	0
10	narrow0.5	0.200000	0.003755	0.950000	100.000000	0.200000	1	0	5	0	1	0.566930	0
11	narrow0.5	0.200000	0.007500	0.950000	100.000000	0.200000	0	1	30	1	1	0.268440	0
12	narrow0.5	0.200000	0.003755	0.950000	100.000000	0.200000	1	1	15	1	1	0.559110	0
13	narrow0.5	0.200000	0.003755	0.950000	100.000000	0.200000	0	1	23	0	0	0.457590	0
14	narrow0.5	0.200000	0.003755	0.950000	100.000000	0.200000	0	0	29	1	0	0.712530	0
15	narrow0.5	0.200000	0.003755	0.950000	100.000000	0.200000	1	0	36	0	1	0.339800	0
16	narrow0.5	0.200000	0.005627	0.950000	100.000000	0.200000	1	0	18	1	0	0.250570	0
17	narrow0.5	0.200000	0.005627	0.950000	100.000000	0.200000	0	1	12	1	1	0.232460	0
18	narrow0.5	0.200000	0.003755	0.950000	100.000000	0.200000	0	1	29	1	1	0.201080	0
19	narrow0.5	0.200000	0.005627	0.950000	100.000000	0.200000	1	0	3	0	1	0.197640	0
20	narrow0.5	0.200000	0.001883	0.950000	100.000000	0.200000	0	0	33	1	0	0.732810	0
21	narrow0.5	0.200000	0.000010	0.950000	100.000000	0.200000	0	1	30	0	0	0.235560	0
22	narrow0.5	0.200000	0.001883	0.950000	100.000000	0.200000	1	1	11	1	1	0.232710	0
23	narrow0.5	0.200000	0.001883	0.950000	100.000000	0.200000	1	0	18	0	1	0.181990	0
24	narrow0.5	0.200000	0.005627	0.950000	100.000000	0.200000	0	0	15	0	1	0.309220	0
25	narrow0.5	0.200000	0.001883	0.950000	100.000000	0.200000	1	0	6	0	1	0.317180	0
26	narrow0.5	0.200000	0.003755	0.950000	100.000000	0.200000	0	1	4	1	1	0.363790	0
27	narrow0.5	0.200000	0.005627	0.950000	100.000000	0.200000	0	1	19	1	1	0.273460	0
28	narrow0.5	0.200000	0.000010	0.950000	100.000000	0.200000	0	0	33	1	0	0.436320	0
29	narrow0.5	0.200000	0.007500	0.950000	100.000000	0.200000	1	0	17	0	1	0.316920	0
30	narrow0.5	0.200000	0.007500	0.950000	100.000000	0.200000	1	1	26	1	1	0.175110	0
31	narrow0.5	0.200000	0.001883	0.950000	100.000000	0.200000	0	0	23	1	0	0.269700	0
32	narrow0.5	0.200000	0.007500	0.950000	100.000000	0.200000	1	1	19	1	1	0.253370	0
33	narrow0.5	0.200000	0.001883	0.950000	100.000000	0.200000	0	0	14	0	1	0.435000	0
34	narrow0.5	0.200000	0.005627	0.950000	100.000000	0.200000	1	1	24	1	1	0.247670	0
35	narrow0.5	0.200000	0.003755	0.950000	100.000000	0.200000	1	0	31	0	1	0.373750	0
36	narrow0.5	0.200000	0.001883	0.950000	100.000000	0.200000	0	0	22	1	0	0.260910	0
37	narrow0.5	0.200000	0.005627	0.950000	100.000000	0.200000	1	0	28	0	1	0.280910	0
38	narrow0.5	0.200000	0.001883	0.950000	100.000000	0.200000	0	1	35	1	1	0.360130	0
39	narrow0.5	0.200000	0.005627	0.950000	100.000000	0.200000	1	1	9	1	1	0.223560	0
40	narrow0.5	0.200000	0.007500	0.950000	100.000000	0.200000	1	0	1	0	1	0.241640	0
41	narrow0.5	0.200000	0.003755	0.950000	100.000000	0.200000	0	0	24	0	1	0.440590	0
42	narrow0.5	0.200000	0.005627	0.950000	100.000000	0.200000	1	0	0	0	1	0.254640	0
43	narrow0.5	0.200000	0.005627	0.950000	100.000000	0.200000	0	0	7	1	0	0.221210	0
44	narrow0.5	0.200000	0.000010	0.950000	100.000000	0.200000	1	1	31	0	0	0.233290	0
45	narrow0.5	0.200000	0.001883	0.950000	100.000000	0.200000	1	1	18	1	1	0.223160	0
46	narrow0.5	0.200000	0.001883	0.950000	100.000000	0.200000	0	1	10	1	1	0.673690	0
47	narrow0.5	0.200000	0.000010	0.950000	100.000000	0.200000	0	0	6	1	0	0.326290	0
48	narrow0.5	0.200000	0.003755	0.950000	100.000000	0.200000	0	0	21	1	0	1.778190	0
49	narrow0.5	0.200000	0.003755	0.950000	100.000000	0.200000	1	0	14	1	0	0.275610	0
50	narrow0.5	0.200000	0.005627	0.950000	100.000000	0.200000	0	0	17	1	0	1.134260	0
51	narrow0.5	0.200000	0.000010	0.950000	100.000000	0.200000	1	0	36	0	1	0.699310	0
52	narrow0.5	0.200000	0.000010	0.950000	100.000000	0.200000	0	1	7	1	1	0.213030	0
53	narrow0.5	0.200000	0.007500	0.950000	100.000000	0.200000	1	1	6	1	1	0.215990	0
54	narrow0.5	0.200000	0.007500	0.950000	100.000000	0.200000	0	0	21	0	1	0.274410	0
55	narrow0.5	0.200000	0.003755	0.950000	100.000000	0.200000	0	1	2	1	1	0.257770	0
56	narrow0.5	0.200000	0.001883	0.950000	100.000000	0.200000	0	1	7	1	1	0.373430	0
57	narrow0.5	0.200000	0.001883	0.950000	100.000000	0.200000	0	1	14	1	1	0.329260	0
58	narrow0.5	0.200000	0.000010	0.950000	100.000000	0.200000	0	0	9	1	0	0.347520	0
59	narrow0.5	0.200000	0.000010	0.950000	100.000000	0.200000	0	1	0	0	0	0.379690	0
60	narrow0.5	0.200000	0.003755	0.950000	100.000000	0.200000	0	0	25	0	1	0.379620	0
61	narrow0.5	0.200000	0.005627	0.950000	100.000000	0.200000	1	1	12	1	1	0.291940	0
62	narrow0.5	0.200000	0.003755	0.950000	100.000000	0.200000	1	1	3	1	1	0.362830	0
63	narrow0.5	0.200000	0.007500	0.950000	100.000000	0.200000	0	0	12	0	1	0.304940	0
64	narrow0.5	0.200000	0.000010	0.950000	100.000000	0.200000	1	1	32	1	1	0.365510	0
65	narrow0.5	0.200000	0.005627	0.950000	100.000000	0.200000	0	0	13	0	1	0.428590	0
66	narrow0.5	0.200000	0.003755	0.950000	100.000000	0.200000	1	0	8	1	0	0.252190	0
67	narrow0.5	0.200000	0.007500	0.950000	100.000000	0.200000	1	1	3	1	1	0.270000	0
68	narrow0.5	0.200000	0.000010	0.950000	100.000000	0.200000	0	1	21	0	0	0.394130	0
69	narrow0.5	0.200000	0.000010	0.950000	100.000000	0.200000	0	0	24	0	1	0.417450	0
70	narrow0.5	0.200000	0.003755	0.950000	100.000000	0.200000	0	0	23	0	1	0.468760	0
71	narrow0.5	0.200000	0.000010	0.950000	100.000000	0.200000	1	0	35	1	0	0.263940	0
72	narrow0.5	0.200000	0.003755	0.950000	100.000000	0.200000	0	1	35	1	1	0.315100	0
73	narrow0.5	0.200000	0.007500	0.950000	100.000000	0.200000	1	0	6	0	1	0.389450	0
74	narrow0.5	0.200000	0.001883	0.950000	100.000000	0.200000	1	1	16	1	1	0.238590	0
75	narrow0.5	0.200000	0.000010	0.950000	100.000000	0.200000	1	1	5	1	1	0.355490	0
76	narrow0.5	0.200000	0.005627	0.950000	100.000000	0.200000	0	1	21	1	1	0.420870	0
77	narrow0.5	0.200000	0.005627	0.950000	100.000000	0.200000	0	0	24	0	1	0.447670	0
78	narrow0.5	0.200000	0.005627	0.950000	100.000000	0.200000	1	0	20	0	1	0.642250	0
79	narrow0.5	0.200000	0.005627	0.950000	100.000000	0.200000	1	0	10	1	0	0.450440	0
80	narrow0.5	0.200000	0.001883	0.950000	100.000000	0.200000	0	1	39	0	0	0.391120	0
81	narrow0.5	0.200000	0.000010	0.950000	100.000000	0.200000	0	0	27	0	1	0.403240	0
82	narrow0.5	0.200000	0.005627	0.950000	100.000000	0.200000	1	1	2	1	1	0.247280	0
83	narrow0.5	0.200000	0.003755	0.950000	100.000000	0.200000	0	1	33	1	1	0.367380	0
84	narrow0.5	0.200000	0.003755	0.950000	100.000000	0.200000	0	0	18	1	0	0.953350	0
85	narrow0.5	0.200000	0.001883	0.950000	100.000000	0.200000	1	1	30	1	1	0.382060	0
86	narrow0.5	0.200000	0.007500	0.950000	100.000000	0.200000	0	1	18	1	1	0.355410	0
87	narrow0.5	0.200000	0.007500	0.950000	100.000000	0.200000	0	1	9	1	1	0.352970	0
88	narrow0.5	0.200000	0.000010	0.950000	100.000000	0.200000	1	0	18	0	1	2.357300	0
89	narrow0.5	0.200000	0.001883	0.950000	100.000000	0.200000	1	1	15	1	1	0.399730	0
90	narrow0.5	0.200000	0.000010	0.950000	100.000000	0.200000	0	0	14	1	0	0.478920	0
91	narrow0.5	0.200000	0.007500	0.950000	100.000000	0.200000	0	0	20	0	1	0.371620	0
92	narrow0.5	0.200000	0.007500	0.950000	100.000000	0.200000	1	1	3	1	1	0.274710	0
93	narrow0.5	0.200000	0.001883	0.950000	100.000000	0.200000	1	1	32	0	0	0.361680	0
94	narrow0.5	0.200000	0.000010	0.950000	100.000000	0.200000	1	0	18	1	0	0.657900	0
95	narrow0.5	0.200000	0.001883	0.950000	100.000000	0.200000	1	1	36	1	1	0.324540	0
96	narrow0.5	0.200000	0.001883	0.950000	100.000000	0.200000	1	1	38	1	1	0.340470	0
97	narrow0.5	0.200000	0.000010	0.950000	100.000000	0.200000	0	1	27	1	1	0.289420	0
98	narrow0.5	0.200000	0.007500	0.950000	100.000000	0.200000	0	0	0	0	1	0.437420	0
99	narrow0.5	0.200000	0.001883	0.950000	100.000000	0.200000	1	0	20	0	1	0.324230	0
