trial	noise	noise_contrast	edge_contrast	edge_width	mean_lum	stim_time	rotID	transID	maskID	resp	correct	resptime	dropframes
0	pink1	0.200000	0.025005	0.950000	100.000000	0.200000	0	1	39	1	1	0.360880	0
1	pink1	0.200000	0.037503	0.950000	100.000000	0.200000	0	1	14	1	1	0.272500	0
2	pink1	0.200000	0.012507	0.950000	100.000000	0.200000	1	1	30	1	1	0.178500	0
3	pink1	0.200000	0.050000	0.950000	100.000000	0.200000	1	0	27	0	1	0.264910	0
4	pink1	0.200000	0.037503	0.950000	100.000000	0.200000	1	0	10	0	1	0.288000	0
5	pink1	0.200000	0.050000	0.950000	100.000000	0.200000	1	1	11	1	1	0.178600	0
6	pink1	0.200000	0.025005	0.950000	100.000000	0.200000	1	1	23	1	1	0.212610	0
7	pink1	0.200000	0.037503	0.950000	100.000000	0.200000	0	1	21	1	1	0.345040	0
8	pink1	0.200000	0.012507	0.950000	100.000000	0.200000	1	1	16	1	1	0.247530	0
9	pink1	0.200000	0.012507	0.950000	100.000000	0.200000	1	0	8	1	0	0.307470	0
10	pink1	0.200000	0.025005	0.950000	100.000000	0.200000	1	0	34	0	1	0.587000	0
11	pink1	0.200000	0.037503	0.950000	100.000000	0.200000	1	1	29	1	1	0.175980	0
12	pink1	0.200000	0.012507	0.950000	100.000000	0.200000	1	1	1	1	1	0.255780	0
13	pink1	0.200000	0.000010	0.950000	100.000000	0.200000	0	1	9	0	0	0.219820	0
14	pink1	0.200000	0.050000	0.950000	100.000000	0.200000	0	0	21	0	1	0.259200	0
15	pink1	0.200000	0.000010	0.950000	100.000000	0.200000	0	1	36	1	1	0.296640	0
16	pink1	0.200000	0.050000	0.950000	100.000000	0.200000	0	0	27	0	1	0.260350	0
17	pink1	0.200000	0.025005	0.950000	100.000000	0.200000	0	1	16	1	1	0.199930	0
18	pink1	0.200000	0.000010	0.950000	100.000000	0.200000	1	0	31	1	0	0.919530	0
19	pink1	0.200000	0.000010	0.950000	100.000000	0.200000	1	0	24	1	0	0.312380	0
20	pink1	0.200000	0.000010	0.950000	100.000000	0.200000	0	0	2	0	1	0.206830	0
21	pink1	0.200000	0.012507	0.950000	100.000000	0.200000	1	1	27	1	1	0.399210	0
22	pink1	0.200000	0.037503	0.950000	100.000000	0.200000	1	1	8	1	1	0.232840	0
23	pink1	0.200000	0.012507	0.950000	100.000000	0.200000	0	0	9	1	0	0.317490	0
24	pink1	0.200000	0.012507	0.950000	100.000000	0.200000	0	1	10	1	1	0.199440	0
25	pink1	0.200000	0.012507	0.950000	100.000000	0.200000	0	1	34	1	1	0.163580	0
26	pink1	0.200000	0.025005	0.950000	100.000000	0.200000	1	0	8	1	0	0.319890	0
27	pink1	0.200000	0.000010	0.950000	100.000000	0.200000	0	0	17	1	0	0.224690	0
28	pink1	0.200000	0.050000	0.950000	100.000000	0.200000	1	1	5	1	1	0.242750	0
29	pink1	0.200000	0.050000	0.950000	100.000000	0.200000	0	1	10	1	1	0.255730	0
30	pink1	0.200000	0.025005	0.950000	100.000000	0.200000	1	0	7	0	1	0.215040	0
31	pink1	0.200000	0.012507	0.950000	100.000000	0.200000	0	1	38	1	1	0.260240	0
32	pink1	0.200000	0.037503	0.950000	100.000000	0.200000	0	0	5	0	1	0.248710	0
33	pink1	0.200000	0.000010	0.950000	100.000000	0.200000	0	1	13	1	1	0.274250	0
34	pink1	0.200000	0.012507	0.950000	100.000000	0.200000	0	1	26	1	1	0.132980	0
35	pink1	0.200000	0.012507	0.950000	100.000000	0.200000	1	1	12	1	1	0.322140	0
36	pink1	0.200000	0.000010	0.950000	100.000000	0.200000	0	1	23	1	1	0.175520	0
37	pink1	0.200000	0.000010	0.950000	100.000000	0.200000	1	0	38	1	0	0.223390	0
38	pink1	0.200000	0.050000	0.950000	100.000000	0.200000	0	0	14	0	1	0.267480	0
39	pink1	0.200000	0.037503	0.950000	100.000000	0.200000	1	1	16	1	1	0.201480	0
40	pink1	0.200000	0.050000	0.950000	100.000000	0.200000	1	0	27	0	1	0.244550	0
41	pink1	0.200000	0.025005	0.950000	100.000000	0.200000	1	0	4	0	1	0.375640	0
42	pink1	0.200000	0.000010	0.950000	100.000000	0.200000	1	0	20	0	1	0.267110	0
43	pink1	0.200000	0.000010	0.950000	100.000000	0.200000	1	1	29	1	1	0.196950	0
44	pink1	0.200000	0.037503	0.950000	100.000000	0.200000	0	0	22	0	1	0.224060	0
45	pink1	0.200000	0.000010	0.950000	100.000000	0.200000	1	1	29	0	0	0.253190	0
46	pink1	0.200000	0.025005	0.950000	100.000000	0.200000	0	1	1	1	1	0.141080	0
47	pink1	0.200000	0.025005	0.950000	100.000000	0.200000	0	1	9	1	1	0.167610	0
48	pink1	0.200000	0.050000	0.950000	100.000000	0.200000	0	1	10	1	1	0.306550	0
49	pink1	0.200000	0.025005	0.950000	100.000000	0.200000	1	1	18	1	1	0.300800	0
50	pink1	0.200000	0.037503	0.950000	100.000000	0.200000	0	0	31	0	1	0.206280	1
51	pink1	0.200000	0.025005	0.950000	100.000000	0.200000	1	0	5	0	1	0.318970	0
52	pink1	0.200000	0.037503	0.950000	100.000000	0.200000	1	0	3	0	1	0.205100	0
53	pink1	0.200000	0.000010	0.950000	100.000000	0.200000	1	1	6	1	1	0.188510	0
54	pink1	0.200000	0.050000	0.950000	100.000000	0.200000	0	1	5	1	1	0.190370	0
55	pink1	0.200000	0.050000	0.950000	100.000000	0.200000	0	1	6	1	1	0.196220	0
56	pink1	0.200000	0.025005	0.950000	100.000000	0.200000	0	1	26	1	1	0.174760	0
57	pink1	0.200000	0.050000	0.950000	100.000000	0.200000	0	0	6	0	1	0.298680	0
58	pink1	0.200000	0.025005	0.950000	100.000000	0.200000	1	0	35	0	1	0.242370	0
59	pink1	0.200000	0.000010	0.950000	100.000000	0.200000	1	1	39	0	0	0.241820	0
60	pink1	0.200000	0.037503	0.950000	100.000000	0.200000	0	1	38	1	1	0.213250	0
61	pink1	0.200000	0.025005	0.950000	100.000000	0.200000	0	1	17	0	0	0.609690	0
62	pink1	0.200000	0.000010	0.950000	100.000000	0.200000	1	1	26	1	1	0.303210	0
63	pink1	0.200000	0.012507	0.950000	100.000000	0.200000	1	0	12	0	1	0.430930	0
64	pink1	0.200000	0.037503	0.950000	100.000000	0.200000	1	1	35	1	1	0.216960	0
65	pink1	0.200000	0.050000	0.950000	100.000000	0.200000	0	0	18	0	1	0.139650	0
66	pink1	0.200000	0.050000	0.950000	100.000000	0.200000	0	0	19	0	1	0.235720	0
67	pink1	0.200000	0.025005	0.950000	100.000000	0.200000	0	0	3	0	1	0.227540	0
68	pink1	0.200000	0.037503	0.950000	100.000000	0.200000	1	1	28	1	1	0.252110	0
69	pink1	0.200000	0.012507	0.950000	100.000000	0.200000	1	0	1	1	0	0.406950	0
70	pink1	0.200000	0.037503	0.950000	100.000000	0.200000	0	0	33	0	1	0.191940	0
71	pink1	0.200000	0.037503	0.950000	100.000000	0.200000	0	1	3	1	1	0.154120	0
72	pink1	0.200000	0.012507	0.950000	100.000000	0.200000	0	1	11	0	0	0.142590	0
73	pink1	0.200000	0.050000	0.950000	100.000000	0.200000	1	1	37	1	1	0.151650	0
74	pink1	0.200000	0.000010	0.950000	100.000000	0.200000	1	1	39	0	0	0.207170	0
75	pink1	0.200000	0.037503	0.950000	100.000000	0.200000	0	0	34	0	1	0.191290	0
76	pink1	0.200000	0.025005	0.950000	100.000000	0.200000	0	0	32	0	1	0.186230	0
77	pink1	0.200000	0.050000	0.950000	100.000000	0.200000	1	0	8	0	1	0.194770	0
78	pink1	0.200000	0.050000	0.950000	100.000000	0.200000	1	1	32	1	1	0.118620	0
79	pink1	0.200000	0.037503	0.950000	100.000000	0.200000	1	0	24	0	1	0.164300	0
80	pink1	0.200000	0.037503	0.950000	100.000000	0.200000	1	1	23	1	1	0.193900	0
81	pink1	0.200000	0.012507	0.950000	100.000000	0.200000	1	1	39	1	1	0.324650	0
82	pink1	0.200000	0.037503	0.950000	100.000000	0.200000	0	0	32	0	1	0.218370	0
83	pink1	0.200000	0.025005	0.950000	100.000000	0.200000	0	0	33	0	1	0.183750	0
84	pink1	0.200000	0.012507	0.950000	100.000000	0.200000	0	1	26	0	0	0.224690	0
85	pink1	0.200000	0.025005	0.950000	100.000000	0.200000	0	1	26	1	1	0.140970	0
86	pink1	0.200000	0.000010	0.950000	100.000000	0.200000	0	0	13	0	1	0.668530	0
87	pink1	0.200000	0.037503	0.950000	100.000000	0.200000	0	1	28	1	1	0.270600	0
88	pink1	0.200000	0.012507	0.950000	100.000000	0.200000	0	1	0	1	1	0.300790	0
89	pink1	0.200000	0.050000	0.950000	100.000000	0.200000	0	1	15	1	1	0.160860	0
90	pink1	0.200000	0.050000	0.950000	100.000000	0.200000	0	0	39	0	1	0.145820	0
91	pink1	0.200000	0.012507	0.950000	100.000000	0.200000	0	1	30	0	0	0.246050	0
92	pink1	0.200000	0.000010	0.950000	100.000000	0.200000	0	1	14	1	1	0.186120	0
93	pink1	0.200000	0.012507	0.950000	100.000000	0.200000	0	1	30	0	0	0.263880	0
94	pink1	0.200000	0.025005	0.950000	100.000000	0.200000	1	1	15	1	1	0.149720	0
95	pink1	0.200000	0.012507	0.950000	100.000000	0.200000	1	1	27	0	0	0.232620	0
96	pink1	0.200000	0.000010	0.950000	100.000000	0.200000	0	1	5	1	1	0.536820	0
97	pink1	0.200000	0.000010	0.950000	100.000000	0.200000	1	1	39	1	1	0.330760	0
98	pink1	0.200000	0.025005	0.950000	100.000000	0.200000	1	0	4	0	1	0.193150	0
99	pink1	0.200000	0.050000	0.950000	100.000000	0.200000	0	0	0	0	1	0.179990	0
