trial	noise	noise_contrast	edge_contrast	edge_width	mean_lum	stim_time	rotID	transID	maskID	resp	correct	resptime	dropframes
0	none	0.200000	0.000010	0.150000	100.000000	0.200000	1	0	38	0	1	0.339950	0
1	none	0.200000	0.004000	0.150000	100.000000	0.200000	0	0	29	0	1	0.233530	0
2	none	0.200000	0.001008	0.150000	100.000000	0.200000	0	1	22	1	1	0.308220	0
3	none	0.200000	0.003003	0.150000	100.000000	0.200000	1	0	37	0	1	0.669900	0
4	none	0.200000	0.002005	0.150000	100.000000	0.200000	0	1	31	1	1	0.314160	0
5	none	0.200000	0.001008	0.150000	100.000000	0.200000	1	1	4	1	1	0.337780	0
6	none	0.200000	0.002005	0.150000	100.000000	0.200000	1	0	6	0	1	0.253640	0
7	none	0.200000	0.000010	0.150000	100.000000	0.200000	0	1	3	1	1	0.295760	0
8	none	0.200000	0.003003	0.150000	100.000000	0.200000	0	1	13	1	1	0.261460	0
9	none	0.200000	0.004000	0.150000	100.000000	0.200000	1	1	5	1	1	0.232260	0
10	none	0.200000	0.003003	0.150000	100.000000	0.200000	0	1	25	1	1	0.227380	0
11	none	0.200000	0.004000	0.150000	100.000000	0.200000	0	0	35	0	1	0.232420	0
12	none	0.200000	0.002005	0.150000	100.000000	0.200000	1	1	16	1	1	0.477150	0
13	none	0.200000	0.001008	0.150000	100.000000	0.200000	0	1	9	1	1	0.311180	0
14	none	0.200000	0.000010	0.150000	100.000000	0.200000	0	0	38	1	0	0.207850	0
15	none	0.200000	0.000010	0.150000	100.000000	0.200000	0	0	21	1	0	0.218980	0
16	none	0.200000	0.001008	0.150000	100.000000	0.200000	0	0	31	1	0	0.240350	0
17	none	0.200000	0.003003	0.150000	100.000000	0.200000	0	0	23	0	1	0.341060	0
18	none	0.200000	0.003003	0.150000	100.000000	0.200000	0	1	38	1	1	0.287590	0
19	none	0.200000	0.001008	0.150000	100.000000	0.200000	1	1	31	0	0	0.632760	0
20	none	0.200000	0.001008	0.150000	100.000000	0.200000	0	1	5	0	0	0.328800	0
21	none	0.200000	0.002005	0.150000	100.000000	0.200000	1	0	27	1	0	0.386890	0
22	none	0.200000	0.004000	0.150000	100.000000	0.200000	0	0	28	0	1	0.318540	0
23	none	0.200000	0.000010	0.150000	100.000000	0.200000	1	1	37	1	1	0.231920	0
24	none	0.200000	0.003003	0.150000	100.000000	0.200000	0	0	10	0	1	0.289310	0
25	none	0.200000	0.002005	0.150000	100.000000	0.200000	1	0	3	0	1	0.511540	0
26	none	0.200000	0.000010	0.150000	100.000000	0.200000	1	1	13	1	1	0.277760	0
27	none	0.200000	0.004000	0.150000	100.000000	0.200000	1	0	23	0	1	0.172270	0
28	none	0.200000	0.003003	0.150000	100.000000	0.200000	0	1	15	1	1	0.202040	0
29	none	0.200000	0.002005	0.150000	100.000000	0.200000	1	0	33	0	1	0.347140	0
30	none	0.200000	0.000010	0.150000	100.000000	0.200000	0	1	33	1	1	0.231840	0
31	none	0.200000	0.003003	0.150000	100.000000	0.200000	1	1	11	1	1	0.289980	0
32	none	0.200000	0.004000	0.150000	100.000000	0.200000	0	0	16	0	1	0.302550	0
33	none	0.200000	0.004000	0.150000	100.000000	0.200000	1	0	32	0	1	0.217470	0
34	none	0.200000	0.001008	0.150000	100.000000	0.200000	1	0	1	1	0	0.223330	0
35	none	0.200000	0.001008	0.150000	100.000000	0.200000	1	1	39	1	1	0.337620	0
36	none	0.200000	0.004000	0.150000	100.000000	0.200000	0	0	11	0	1	0.340470	0
37	none	0.200000	0.002005	0.150000	100.000000	0.200000	1	1	7	1	1	0.313030	0
38	none	0.200000	0.001008	0.150000	100.000000	0.200000	0	0	8	0	1	0.307600	0
39	none	0.200000	0.001008	0.150000	100.000000	0.200000	1	1	29	0	0	0.358060	0
40	none	0.200000	0.000010	0.150000	100.000000	0.200000	1	0	24	0	1	0.233810	0
41	none	0.200000	0.001008	0.150000	100.000000	0.200000	1	0	32	1	0	0.291270	0
42	none	0.200000	0.003003	0.150000	100.000000	0.200000	1	0	33	0	1	0.232050	0
43	none	0.200000	0.002005	0.150000	100.000000	0.200000	1	0	6	0	1	0.304090	0
44	none	0.200000	0.000010	0.150000	100.000000	0.200000	0	1	27	1	1	0.289030	0
45	none	0.200000	0.000010	0.150000	100.000000	0.200000	1	1	10	0	0	0.522670	0
46	none	0.200000	0.004000	0.150000	100.000000	0.200000	0	1	29	1	1	0.222540	0
47	none	0.200000	0.004000	0.150000	100.000000	0.200000	1	0	26	0	1	0.262820	0
48	none	0.200000	0.000010	0.150000	100.000000	0.200000	0	1	12	0	0	0.621230	0
49	none	0.200000	0.001008	0.150000	100.000000	0.200000	1	1	23	0	0	0.300680	0
50	none	0.200000	0.003003	0.150000	100.000000	0.200000	0	0	14	0	1	0.411080	0
51	none	0.200000	0.003003	0.150000	100.000000	0.200000	1	1	11	1	1	0.312630	0
52	none	0.200000	0.004000	0.150000	100.000000	0.200000	0	1	32	1	1	0.163350	0
53	none	0.200000	0.002005	0.150000	100.000000	0.200000	0	1	31	0	0	1.041140	0
54	none	0.200000	0.003003	0.150000	100.000000	0.200000	1	0	18	0	1	0.400040	0
55	none	0.200000	0.001008	0.150000	100.000000	0.200000	1	0	23	1	0	0.212620	0
56	none	0.200000	0.003003	0.150000	100.000000	0.200000	1	1	6	1	1	0.257170	0
57	none	0.200000	0.002005	0.150000	100.000000	0.200000	1	1	7	1	1	0.295180	0
58	none	0.200000	0.003003	0.150000	100.000000	0.200000	1	0	9	0	1	0.209170	0
59	none	0.200000	0.002005	0.150000	100.000000	0.200000	1	0	17	0	1	0.229160	0
60	none	0.200000	0.000010	0.150000	100.000000	0.200000	0	1	5	1	1	0.523480	0
61	none	0.200000	0.004000	0.150000	100.000000	0.200000	1	1	21	1	1	0.141690	0
62	none	0.200000	0.002005	0.150000	100.000000	0.200000	0	0	33	0	1	0.535750	0
63	none	0.200000	0.000010	0.150000	100.000000	0.200000	1	0	27	1	0	0.221710	0
64	none	0.200000	0.001008	0.150000	100.000000	0.200000	1	0	7	1	0	0.210650	0
65	none	0.200000	0.004000	0.150000	100.000000	0.200000	1	1	12	1	1	0.191380	0
66	none	0.200000	0.003003	0.150000	100.000000	0.200000	0	1	29	1	1	0.193270	0
67	none	0.200000	0.001008	0.150000	100.000000	0.200000	0	0	26	0	1	0.267110	0
68	none	0.200000	0.003003	0.150000	100.000000	0.200000	1	0	11	0	1	0.292090	0
69	none	0.200000	0.000010	0.150000	100.000000	0.200000	1	1	36	1	1	0.162700	0
70	none	0.200000	0.000010	0.150000	100.000000	0.200000	1	1	22	0	0	0.222040	0
71	none	0.200000	0.001008	0.150000	100.000000	0.200000	1	1	8	1	1	0.234930	0
72	none	0.200000	0.000010	0.150000	100.000000	0.200000	1	1	27	0	0	0.232090	0
73	none	0.200000	0.002005	0.150000	100.000000	0.200000	1	1	17	0	0	0.241810	0
74	none	0.200000	0.004000	0.150000	100.000000	0.200000	0	1	5	1	1	0.193570	0
75	none	0.200000	0.002005	0.150000	100.000000	0.200000	1	0	27	0	1	0.315510	0
76	none	0.200000	0.002005	0.150000	100.000000	0.200000	1	1	25	0	0	0.618770	0
77	none	0.200000	0.001008	0.150000	100.000000	0.200000	1	0	14	0	1	0.584740	0
78	none	0.200000	0.000010	0.150000	100.000000	0.200000	0	0	19	1	0	0.178420	0
79	none	0.200000	0.003003	0.150000	100.000000	0.200000	1	1	30	1	1	0.218360	0
80	none	0.200000	0.001008	0.150000	100.000000	0.200000	0	1	6	0	0	0.196770	0
81	none	0.200000	0.001008	0.150000	100.000000	0.200000	0	0	35	1	0	0.200310	0
82	none	0.200000	0.003003	0.150000	100.000000	0.200000	1	1	34	1	1	0.245350	0
83	none	0.200000	0.001008	0.150000	100.000000	0.200000	1	0	30	0	1	0.345530	0
84	none	0.200000	0.003003	0.150000	100.000000	0.200000	1	1	2	1	1	0.210130	0
85	none	0.200000	0.002005	0.150000	100.000000	0.200000	1	1	2	1	1	0.283420	0
86	none	0.200000	0.002005	0.150000	100.000000	0.200000	0	0	3	0	1	0.317020	0
87	none	0.200000	0.004000	0.150000	100.000000	0.200000	1	1	25	1	1	0.228710	0
88	none	0.200000	0.002005	0.150000	100.000000	0.200000	1	1	39	0	0	0.284320	0
89	none	0.200000	0.004000	0.150000	100.000000	0.200000	1	1	24	1	1	0.179100	0
90	none	0.200000	0.004000	0.150000	100.000000	0.200000	0	1	10	1	1	0.250650	0
91	none	0.200000	0.004000	0.150000	100.000000	0.200000	1	0	35	0	1	0.222960	0
92	none	0.200000	0.000010	0.150000	100.000000	0.200000	1	0	10	0	1	0.301740	0
93	none	0.200000	0.002005	0.150000	100.000000	0.200000	0	0	39	1	0	0.322690	0
94	none	0.200000	0.002005	0.150000	100.000000	0.200000	0	0	7	0	1	0.323830	0
95	none	0.200000	0.000010	0.150000	100.000000	0.200000	1	1	12	0	0	0.480720	0
96	none	0.200000	0.003003	0.150000	100.000000	0.200000	1	1	6	1	1	0.275510	0
97	none	0.200000	0.004000	0.150000	100.000000	0.200000	1	1	10	1	1	0.201650	0
98	none	0.200000	0.004000	0.150000	100.000000	0.200000	0	0	25	0	1	0.354850	0
99	none	0.200000	0.000010	0.150000	100.000000	0.200000	1	0	34	1	0	0.527280	0
