trial	noise	noise_contrast	edge_contrast	edge_width	mean_lum	stim_time	rotID	transID	maskID	resp	correct	resptime	dropframes
0	white	0.200000	0.003757	0.950000	100.000000	0.200000	1	0	18	0	1	0.267250	0
1	white	0.200000	0.015000	0.950000	100.000000	0.200000	1	1	38	1	1	0.225080	0
2	white	0.200000	0.003757	0.950000	100.000000	0.200000	1	0	17	0	1	0.395600	0
3	white	0.200000	0.011252	0.950000	100.000000	0.200000	0	0	20	0	1	0.259930	0
4	white	0.200000	0.003757	0.950000	100.000000	0.200000	1	0	13	1	0	0.249970	0
5	white	0.200000	0.011252	0.950000	100.000000	0.200000	1	1	29	1	1	0.409450	0
6	white	0.200000	0.007505	0.950000	100.000000	0.200000	0	0	36	0	1	0.391820	0
7	white	0.200000	0.015000	0.950000	100.000000	0.200000	1	0	19	0	1	0.326570	0
8	white	0.200000	0.015000	0.950000	100.000000	0.200000	1	0	4	0	1	0.385310	0
9	white	0.200000	0.000010	0.950000	100.000000	0.200000	1	0	34	1	0	0.285410	0
10	white	0.200000	0.007505	0.950000	100.000000	0.200000	0	0	10	0	1	0.248990	0
11	white	0.200000	0.003757	0.950000	100.000000	0.200000	1	0	34	1	0	0.414730	0
12	white	0.200000	0.000010	0.950000	100.000000	0.200000	1	1	12	0	0	0.291860	0
13	white	0.200000	0.003757	0.950000	100.000000	0.200000	1	0	18	0	1	0.312020	0
14	white	0.200000	0.007505	0.950000	100.000000	0.200000	1	1	0	1	1	0.294680	0
15	white	0.200000	0.000010	0.950000	100.000000	0.200000	1	1	27	1	1	0.377310	0
16	white	0.200000	0.007505	0.950000	100.000000	0.200000	1	0	32	0	1	0.403720	0
17	white	0.200000	0.000010	0.950000	100.000000	0.200000	0	1	35	0	0	0.272330	0
18	white	0.200000	0.011252	0.950000	100.000000	0.200000	1	0	19	1	0	0.470920	0
19	white	0.200000	0.003757	0.950000	100.000000	0.200000	1	0	21	0	1	1.248730	0
20	white	0.200000	0.007505	0.950000	100.000000	0.200000	1	1	10	1	1	0.594640	0
21	white	0.200000	0.011252	0.950000	100.000000	0.200000	1	1	39	1	1	0.223310	0
22	white	0.200000	0.003757	0.950000	100.000000	0.200000	0	0	24	0	1	0.283810	0
23	white	0.200000	0.011252	0.950000	100.000000	0.200000	1	1	20	1	1	0.240970	0
24	white	0.200000	0.007505	0.950000	100.000000	0.200000	1	1	15	1	1	0.232960	0
25	white	0.200000	0.015000	0.950000	100.000000	0.200000	0	0	37	0	1	0.386870	0
26	white	0.200000	0.011252	0.950000	100.000000	0.200000	0	1	20	1	1	0.191100	0
27	white	0.200000	0.015000	0.950000	100.000000	0.200000	1	1	29	1	1	0.245750	0
28	white	0.200000	0.000010	0.950000	100.000000	0.200000	0	0	25	0	1	0.575170	0
29	white	0.200000	0.000010	0.950000	100.000000	0.200000	0	0	10	0	1	0.384220	0
30	white	0.200000	0.015000	0.950000	100.000000	0.200000	0	0	33	0	1	0.286660	0
31	white	0.200000	0.000010	0.950000	100.000000	0.200000	0	0	23	1	0	0.610410	0
32	white	0.200000	0.000010	0.950000	100.000000	0.200000	1	1	30	1	1	0.692100	0
33	white	0.200000	0.007505	0.950000	100.000000	0.200000	0	1	17	1	1	0.236700	0
34	white	0.200000	0.003757	0.950000	100.000000	0.200000	0	1	6	0	0	0.296640	0
35	white	0.200000	0.015000	0.950000	100.000000	0.200000	1	1	29	1	1	0.315560	0
36	white	0.200000	0.007505	0.950000	100.000000	0.200000	1	0	26	0	1	0.275900	0
37	white	0.200000	0.011252	0.950000	100.000000	0.200000	0	1	13	1	1	0.148080	0
38	white	0.200000	0.000010	0.950000	100.000000	0.200000	0	1	39	0	0	0.436310	0
39	white	0.200000	0.015000	0.950000	100.000000	0.200000	0	0	21	0	1	0.218770	0
40	white	0.200000	0.000010	0.950000	100.000000	0.200000	1	1	1	0	0	0.229380	0
41	white	0.200000	0.000010	0.950000	100.000000	0.200000	1	0	7	1	0	0.238540	0
42	white	0.200000	0.011252	0.950000	100.000000	0.200000	1	0	1	0	1	0.307770	0
43	white	0.200000	0.007505	0.950000	100.000000	0.200000	0	1	29	1	1	0.292690	0
44	white	0.200000	0.003757	0.950000	100.000000	0.200000	0	0	5	0	1	0.226200	0
45	white	0.200000	0.011252	0.950000	100.000000	0.200000	1	0	22	0	1	0.293160	0
46	white	0.200000	0.003757	0.950000	100.000000	0.200000	1	0	9	0	1	0.365420	0
47	white	0.200000	0.000010	0.950000	100.000000	0.200000	0	0	16	0	1	0.364240	0
48	white	0.200000	0.011252	0.950000	100.000000	0.200000	0	0	32	0	1	0.290960	0
49	white	0.200000	0.007505	0.950000	100.000000	0.200000	0	1	37	0	0	0.313000	0
50	white	0.200000	0.003757	0.950000	100.000000	0.200000	1	1	5	0	0	0.339550	0
51	white	0.200000	0.007505	0.950000	100.000000	0.200000	0	0	27	0	1	0.250470	0
52	white	0.200000	0.015000	0.950000	100.000000	0.200000	1	0	3	0	1	0.313810	0
53	white	0.200000	0.011252	0.950000	100.000000	0.200000	0	1	38	1	1	0.352440	0
54	white	0.200000	0.011252	0.950000	100.000000	0.200000	0	1	16	1	1	0.310090	0
55	white	0.200000	0.007505	0.950000	100.000000	0.200000	0	0	33	0	1	0.275450	0
56	white	0.200000	0.015000	0.950000	100.000000	0.200000	0	0	24	0	1	0.260650	0
57	white	0.200000	0.000010	0.950000	100.000000	0.200000	1	1	26	0	0	0.242620	0
58	white	0.200000	0.000010	0.950000	100.000000	0.200000	1	1	33	1	1	0.260290	0
59	white	0.200000	0.007505	0.950000	100.000000	0.200000	0	1	23	1	1	0.198610	0
60	white	0.200000	0.007505	0.950000	100.000000	0.200000	1	0	35	1	0	0.211850	0
61	white	0.200000	0.015000	0.950000	100.000000	0.200000	0	1	13	1	1	0.226440	0
62	white	0.200000	0.015000	0.950000	100.000000	0.200000	1	1	11	1	1	0.338140	0
63	white	0.200000	0.003757	0.950000	100.000000	0.200000	0	0	35	0	1	0.287280	0
64	white	0.200000	0.015000	0.950000	100.000000	0.200000	1	0	4	0	1	0.304190	0
65	white	0.200000	0.011252	0.950000	100.000000	0.200000	1	1	20	1	1	0.219440	0
66	white	0.200000	0.011252	0.950000	100.000000	0.200000	0	0	37	0	1	0.244530	0
67	white	0.200000	0.007505	0.950000	100.000000	0.200000	0	0	0	0	1	0.300660	0
68	white	0.200000	0.015000	0.950000	100.000000	0.200000	0	0	35	0	1	0.189610	0
69	white	0.200000	0.015000	0.950000	100.000000	0.200000	1	1	27	1	1	0.188350	0
70	white	0.200000	0.011252	0.950000	100.000000	0.200000	0	0	18	0	1	0.173660	0
71	white	0.200000	0.011252	0.950000	100.000000	0.200000	1	1	32	1	1	0.177510	0
72	white	0.200000	0.015000	0.950000	100.000000	0.200000	0	0	26	0	1	0.270330	0
73	white	0.200000	0.000010	0.950000	100.000000	0.200000	0	1	36	0	0	0.607190	0
74	white	0.200000	0.003757	0.950000	100.000000	0.200000	0	1	15	0	0	0.279970	0
75	white	0.200000	0.011252	0.950000	100.000000	0.200000	1	0	29	0	1	0.325760	0
76	white	0.200000	0.000010	0.950000	100.000000	0.200000	1	1	20	1	1	0.352700	0
77	white	0.200000	0.011252	0.950000	100.000000	0.200000	0	0	33	0	1	0.238090	0
78	white	0.200000	0.007505	0.950000	100.000000	0.200000	1	1	24	1	1	0.224410	0
79	white	0.200000	0.011252	0.950000	100.000000	0.200000	1	1	13	1	1	0.203210	0
80	white	0.200000	0.007505	0.950000	100.000000	0.200000	0	0	0	0	1	0.287550	0
81	white	0.200000	0.015000	0.950000	100.000000	0.200000	1	0	25	0	1	0.179000	0
82	white	0.200000	0.011252	0.950000	100.000000	0.200000	0	0	16	0	1	0.227310	0
83	white	0.200000	0.000010	0.950000	100.000000	0.200000	1	1	22	0	0	0.470200	0
84	white	0.200000	0.003757	0.950000	100.000000	0.200000	1	1	23	1	1	0.553100	0
85	white	0.200000	0.007505	0.950000	100.000000	0.200000	1	1	26	1	1	0.243030	0
86	white	0.200000	0.000010	0.950000	100.000000	0.200000	0	1	16	1	1	0.297840	0
87	white	0.200000	0.015000	0.950000	100.000000	0.200000	1	1	8	1	1	0.250270	0
88	white	0.200000	0.007505	0.950000	100.000000	0.200000	1	1	24	1	1	0.229420	0
89	white	0.200000	0.000010	0.950000	100.000000	0.200000	1	0	15	1	0	0.238400	0
90	white	0.200000	0.015000	0.950000	100.000000	0.200000	0	0	4	0	1	0.390310	0
91	white	0.200000	0.003757	0.950000	100.000000	0.200000	0	1	19	0	0	0.311560	0
92	white	0.200000	0.000010	0.950000	100.000000	0.200000	1	1	32	1	1	0.325250	0
93	white	0.200000	0.007505	0.950000	100.000000	0.200000	0	0	26	0	1	0.351270	0
94	white	0.200000	0.003757	0.950000	100.000000	0.200000	1	0	3	1	0	0.266750	0
95	white	0.200000	0.003757	0.950000	100.000000	0.200000	0	1	28	1	1	0.224350	0
96	white	0.200000	0.015000	0.950000	100.000000	0.200000	0	1	18	1	1	0.275910	0
97	white	0.200000	0.003757	0.950000	100.000000	0.200000	0	1	23	1	1	0.393260	0
98	white	0.200000	0.003757	0.950000	100.000000	0.200000	0	0	34	0	1	0.263920	0
99	white	0.200000	0.003757	0.950000	100.000000	0.200000	1	1	12	1	1	0.222690	0
