trial	noise	noise_contrast	edge_contrast	edge_width	mean_lum	stim_time	rotID	transID	maskID	resp	correct	resptime	dropframes
0	narrow0.5	0.200000	0.002253	0.150000	100.000000	0.200000	1	1	36	1	1	0.302800	0
1	narrow0.5	0.200000	0.002253	0.150000	100.000000	0.200000	1	1	18	1	1	0.204870	0
2	narrow0.5	0.200000	0.003000	0.150000	100.000000	0.200000	0	1	26	1	1	0.244440	0
3	narrow0.5	0.200000	0.003000	0.150000	100.000000	0.200000	1	1	3	1	1	0.178890	0
4	narrow0.5	0.200000	0.001505	0.150000	100.000000	0.200000	1	0	5	0	1	0.606030	0
5	narrow0.5	0.200000	0.000010	0.150000	100.000000	0.200000	0	1	29	1	1	0.355210	0
6	narrow0.5	0.200000	0.000010	0.150000	100.000000	0.200000	1	0	35	0	1	0.433250	1
7	narrow0.5	0.200000	0.002253	0.150000	100.000000	0.200000	1	1	4	1	1	0.204620	0
8	narrow0.5	0.200000	0.002253	0.150000	100.000000	0.200000	1	1	24	1	1	0.224660	0
9	narrow0.5	0.200000	0.000758	0.150000	100.000000	0.200000	1	1	23	0	0	0.269080	0
10	narrow0.5	0.200000	0.000010	0.150000	100.000000	0.200000	0	1	3	1	1	0.208690	0
11	narrow0.5	0.200000	0.001505	0.150000	100.000000	0.200000	0	0	21	0	1	0.224590	0
12	narrow0.5	0.200000	0.003000	0.150000	100.000000	0.200000	0	0	7	0	1	0.240850	0
13	narrow0.5	0.200000	0.000758	0.150000	100.000000	0.200000	1	1	38	1	1	0.237650	0
14	narrow0.5	0.200000	0.002253	0.150000	100.000000	0.200000	1	1	24	1	1	0.201880	0
15	narrow0.5	0.200000	0.001505	0.150000	100.000000	0.200000	1	0	5	0	1	0.203890	0
16	narrow0.5	0.200000	0.002253	0.150000	100.000000	0.200000	1	0	27	0	1	0.475120	0
17	narrow0.5	0.200000	0.001505	0.150000	100.000000	0.200000	0	1	31	1	1	0.437810	0
18	narrow0.5	0.200000	0.002253	0.150000	100.000000	0.200000	1	0	4	0	1	0.184280	0
19	narrow0.5	0.200000	0.000010	0.150000	100.000000	0.200000	1	0	4	0	1	0.209490	0
20	narrow0.5	0.200000	0.000758	0.150000	100.000000	0.200000	0	1	18	0	0	0.243200	0
21	narrow0.5	0.200000	0.003000	0.150000	100.000000	0.200000	0	0	29	0	1	0.248250	0
22	narrow0.5	0.200000	0.000758	0.150000	100.000000	0.200000	0	0	35	0	1	0.295090	0
23	narrow0.5	0.200000	0.000758	0.150000	100.000000	0.200000	1	1	24	1	1	0.372710	0
24	narrow0.5	0.200000	0.000010	0.150000	100.000000	0.200000	1	0	16	1	0	0.281570	0
25	narrow0.5	0.200000	0.000758	0.150000	100.000000	0.200000	1	1	0	0	0	0.249520	0
26	narrow0.5	0.200000	0.000010	0.150000	100.000000	0.200000	1	1	19	1	1	0.450830	0
27	narrow0.5	0.200000	0.000010	0.150000	100.000000	0.200000	1	0	34	0	1	0.248350	0
28	narrow0.5	0.200000	0.000010	0.150000	100.000000	0.200000	0	1	1	1	1	0.252760	0
29	narrow0.5	0.200000	0.003000	0.150000	100.000000	0.200000	0	1	17	1	1	0.224600	0
30	narrow0.5	0.200000	0.003000	0.150000	100.000000	0.200000	0	1	38	1	1	0.306420	0
31	narrow0.5	0.200000	0.000758	0.150000	100.000000	0.200000	1	1	13	1	1	0.251780	0
32	narrow0.5	0.200000	0.002253	0.150000	100.000000	0.200000	0	0	27	0	1	0.355780	0
33	narrow0.5	0.200000	0.000758	0.150000	100.000000	0.200000	0	1	16	1	1	0.296300	0
34	narrow0.5	0.200000	0.003000	0.150000	100.000000	0.200000	1	0	33	0	1	0.426690	0
35	narrow0.5	0.200000	0.002253	0.150000	100.000000	0.200000	0	0	31	0	1	0.240690	0
36	narrow0.5	0.200000	0.002253	0.150000	100.000000	0.200000	0	0	36	0	1	0.178970	0
37	narrow0.5	0.200000	0.003000	0.150000	100.000000	0.200000	1	1	6	1	1	0.232900	0
38	narrow0.5	0.200000	0.000758	0.150000	100.000000	0.200000	1	1	3	1	1	0.269660	0
39	narrow0.5	0.200000	0.003000	0.150000	100.000000	0.200000	1	0	15	0	1	0.353820	0
40	narrow0.5	0.200000	0.003000	0.150000	100.000000	0.200000	1	1	20	1	1	0.228860	0
41	narrow0.5	0.200000	0.002253	0.150000	100.000000	0.200000	1	0	22	0	1	0.154360	0
42	narrow0.5	0.200000	0.003000	0.150000	100.000000	0.200000	1	0	18	0	1	0.207630	0
43	narrow0.5	0.200000	0.001505	0.150000	100.000000	0.200000	1	0	21	0	1	0.179260	0
44	narrow0.5	0.200000	0.001505	0.150000	100.000000	0.200000	0	0	22	1	0	0.197000	0
45	narrow0.5	0.200000	0.000758	0.150000	100.000000	0.200000	1	0	1	0	1	0.216520	0
46	narrow0.5	0.200000	0.000010	0.150000	100.000000	0.200000	1	0	25	1	0	0.366060	0
47	narrow0.5	0.200000	0.001505	0.150000	100.000000	0.200000	1	1	7	0	0	0.247740	0
48	narrow0.5	0.200000	0.003000	0.150000	100.000000	0.200000	1	1	35	1	1	0.222370	0
49	narrow0.5	0.200000	0.002253	0.150000	100.000000	0.200000	1	1	39	1	1	0.371460	0
50	narrow0.5	0.200000	0.000010	0.150000	100.000000	0.200000	0	1	29	0	0	0.178790	0
51	narrow0.5	0.200000	0.001505	0.150000	100.000000	0.200000	0	0	12	0	1	0.308770	0
52	narrow0.5	0.200000	0.001505	0.150000	100.000000	0.200000	0	0	24	0	1	0.696140	0
53	narrow0.5	0.200000	0.001505	0.150000	100.000000	0.200000	0	0	2	0	1	0.509690	0
54	narrow0.5	0.200000	0.001505	0.150000	100.000000	0.200000	0	1	15	0	0	0.226130	0
55	narrow0.5	0.200000	0.003000	0.150000	100.000000	0.200000	0	0	11	0	1	0.299800	0
56	narrow0.5	0.200000	0.003000	0.150000	100.000000	0.200000	0	0	4	0	1	0.204630	0
57	narrow0.5	0.200000	0.001505	0.150000	100.000000	0.200000	1	1	39	0	0	0.162690	0
58	narrow0.5	0.200000	0.000758	0.150000	100.000000	0.200000	0	0	4	1	0	0.259290	0
59	narrow0.5	0.200000	0.001505	0.150000	100.000000	0.200000	1	1	29	0	0	0.185660	0
60	narrow0.5	0.200000	0.002253	0.150000	100.000000	0.200000	1	1	36	1	1	0.260850	0
61	narrow0.5	0.200000	0.003000	0.150000	100.000000	0.200000	0	0	22	0	1	0.262830	0
62	narrow0.5	0.200000	0.003000	0.150000	100.000000	0.200000	0	0	9	0	1	0.208440	0
63	narrow0.5	0.200000	0.000010	0.150000	100.000000	0.200000	0	0	6	1	0	0.230750	0
64	narrow0.5	0.200000	0.000010	0.150000	100.000000	0.200000	0	1	15	0	0	0.696950	0
65	narrow0.5	0.200000	0.000010	0.150000	100.000000	0.200000	1	0	37	1	0	0.424970	0
66	narrow0.5	0.200000	0.000758	0.150000	100.000000	0.200000	0	1	14	0	0	0.266070	0
67	narrow0.5	0.200000	0.003000	0.150000	100.000000	0.200000	0	1	13	1	1	0.209120	0
68	narrow0.5	0.200000	0.002253	0.150000	100.000000	0.200000	1	1	1	1	1	0.267800	0
69	narrow0.5	0.200000	0.000010	0.150000	100.000000	0.200000	1	1	26	0	0	0.446220	0
70	narrow0.5	0.200000	0.001505	0.150000	100.000000	0.200000	1	0	30	0	1	0.259290	0
71	narrow0.5	0.200000	0.002253	0.150000	100.000000	0.200000	0	1	5	1	1	0.314360	0
72	narrow0.5	0.200000	0.001505	0.150000	100.000000	0.200000	0	1	36	1	1	0.452270	0
73	narrow0.5	0.200000	0.000758	0.150000	100.000000	0.200000	1	0	33	0	1	0.311300	0
74	narrow0.5	0.200000	0.002253	0.150000	100.000000	0.200000	1	0	14	1	0	0.202020	0
75	narrow0.5	0.200000	0.000758	0.150000	100.000000	0.200000	1	0	6	0	1	0.311860	0
76	narrow0.5	0.200000	0.002253	0.150000	100.000000	0.200000	0	0	16	1	0	0.286330	0
77	narrow0.5	0.200000	0.000010	0.150000	100.000000	0.200000	1	0	28	0	1	0.438630	0
78	narrow0.5	0.200000	0.003000	0.150000	100.000000	0.200000	1	1	37	1	1	0.198890	0
79	narrow0.5	0.200000	0.000758	0.150000	100.000000	0.200000	0	1	4	1	1	0.275740	0
80	narrow0.5	0.200000	0.002253	0.150000	100.000000	0.200000	0	0	0	0	1	0.325600	0
81	narrow0.5	0.200000	0.000010	0.150000	100.000000	0.200000	1	0	16	1	0	0.262800	0
82	narrow0.5	0.200000	0.001505	0.150000	100.000000	0.200000	1	0	9	1	0	0.553870	0
83	narrow0.5	0.200000	0.003000	0.150000	100.000000	0.200000	1	0	26	0	1	0.235690	0
84	narrow0.5	0.200000	0.001505	0.150000	100.000000	0.200000	1	0	28	0	1	0.755340	0
85	narrow0.5	0.200000	0.000010	0.150000	100.000000	0.200000	1	1	17	1	1	0.736870	0
86	narrow0.5	0.200000	0.000758	0.150000	100.000000	0.200000	1	0	10	0	1	0.242230	0
87	narrow0.5	0.200000	0.001505	0.150000	100.000000	0.200000	0	0	25	1	0	0.298270	0
88	narrow0.5	0.200000	0.000758	0.150000	100.000000	0.200000	0	1	36	1	1	0.359760	0
89	narrow0.5	0.200000	0.000010	0.150000	100.000000	0.200000	1	1	10	0	0	0.156850	0
90	narrow0.5	0.200000	0.001505	0.150000	100.000000	0.200000	1	1	18	1	1	0.361100	0
91	narrow0.5	0.200000	0.000758	0.150000	100.000000	0.200000	1	0	12	0	1	0.272580	0
92	narrow0.5	0.200000	0.002253	0.150000	100.000000	0.200000	1	0	30	1	0	0.291000	0
93	narrow0.5	0.200000	0.002253	0.150000	100.000000	0.200000	0	0	39	0	1	0.228450	0
94	narrow0.5	0.200000	0.001505	0.150000	100.000000	0.200000	1	1	17	1	1	0.229170	0
95	narrow0.5	0.200000	0.000758	0.150000	100.000000	0.200000	0	0	35	1	0	0.359790	0
96	narrow0.5	0.200000	0.000010	0.150000	100.000000	0.200000	0	0	37	0	1	0.260760	0
97	narrow0.5	0.200000	0.003000	0.150000	100.000000	0.200000	0	1	37	1	1	0.300790	0
98	narrow0.5	0.200000	0.000758	0.150000	100.000000	0.200000	1	0	21	0	1	0.290210	0
99	narrow0.5	0.200000	0.000010	0.150000	100.000000	0.200000	1	0	8	1	0	0.224100	0
