trial	noise	noise_contrast	edge_contrast	edge_width	mean_lum	stim_time	rotID	transID	maskID	resp	correct	resptime	dropframes
0	narrow9	0.200000	0.007500	0.950000	100.000000	0.200000	0	0	25	0	1	0.060350	0
1	narrow9	0.200000	0.003755	0.950000	100.000000	0.200000	1	0	20	0	1	0.150880	0
2	narrow9	0.200000	0.003755	0.950000	100.000000	0.200000	1	0	14	0	1	0.148280	0
3	narrow9	0.200000	0.001883	0.950000	100.000000	0.200000	0	1	25	0	0	0.145420	0
4	narrow9	0.200000	0.001883	0.950000	100.000000	0.200000	1	1	31	1	1	0.108220	0
5	narrow9	0.200000	0.000010	0.950000	100.000000	0.200000	0	0	11	1	0	0.098900	0
6	narrow9	0.200000	0.003755	0.950000	100.000000	0.200000	1	1	29	1	1	0.143920	0
7	narrow9	0.200000	0.000010	0.950000	100.000000	0.200000	1	1	29	0	0	0.090180	0
8	narrow9	0.200000	0.005627	0.950000	100.000000	0.200000	0	1	27	1	1	0.190440	0
9	narrow9	0.200000	0.005627	0.950000	100.000000	0.200000	0	1	36	1	1	0.159920	0
10	narrow9	0.200000	0.007500	0.950000	100.000000	0.200000	1	0	16	0	1	0.065570	0
11	narrow9	0.200000	0.007500	0.950000	100.000000	0.200000	0	0	3	0	1	0.063990	0
12	narrow9	0.200000	0.003755	0.950000	100.000000	0.200000	0	0	20	0	1	0.081250	0
13	narrow9	0.200000	0.005627	0.950000	100.000000	0.200000	1	1	0	1	1	0.063840	0
14	narrow9	0.200000	0.005627	0.950000	100.000000	0.200000	1	0	21	0	1	0.027170	0
15	narrow9	0.200000	0.005627	0.950000	100.000000	0.200000	0	1	0	1	1	1.169830	0
16	narrow9	0.200000	0.003755	0.950000	100.000000	0.200000	0	0	14	0	1	0.088620	0
17	narrow9	0.200000	0.000010	0.950000	100.000000	0.200000	1	1	6	1	1	0.109520	0
18	narrow9	0.200000	0.000010	0.950000	100.000000	0.200000	1	1	13	0	0	0.166990	0
19	narrow9	0.200000	0.005627	0.950000	100.000000	0.200000	0	1	23	1	1	0.063620	0
20	narrow9	0.200000	0.003755	0.950000	100.000000	0.200000	0	1	27	1	1	0.094360	0
21	narrow9	0.200000	0.007500	0.950000	100.000000	0.200000	1	0	36	0	1	0.059250	0
22	narrow9	0.200000	0.000010	0.950000	100.000000	0.200000	0	0	3	1	0	0.131510	0
23	narrow9	0.200000	0.000010	0.950000	100.000000	0.200000	0	0	36	1	0	0.254120	0
24	narrow9	0.200000	0.003755	0.950000	100.000000	0.200000	1	1	17	1	1	0.142880	0
25	narrow9	0.200000	0.005627	0.950000	100.000000	0.200000	1	1	20	1	1	0.084560	0
26	narrow9	0.200000	0.001883	0.950000	100.000000	0.200000	1	0	39	1	0	0.070250	0
27	narrow9	0.200000	0.000010	0.950000	100.000000	0.200000	1	1	0	0	0	0.203150	0
28	narrow9	0.200000	0.005627	0.950000	100.000000	0.200000	0	0	4	0	1	0.103690	0
29	narrow9	0.200000	0.005627	0.950000	100.000000	0.200000	1	1	39	1	1	0.090380	0
30	narrow9	0.200000	0.007500	0.950000	100.000000	0.200000	0	1	2	1	1	0.112030	0
31	narrow9	0.200000	0.000010	0.950000	100.000000	0.200000	0	1	18	0	0	0.162950	0
32	narrow9	0.200000	0.003755	0.950000	100.000000	0.200000	0	0	12	0	1	0.154870	0
33	narrow9	0.200000	0.001883	0.950000	100.000000	0.200000	0	0	31	1	0	0.111220	0
34	narrow9	0.200000	0.007500	0.950000	100.000000	0.200000	0	1	18	1	1	0.033850	0
35	narrow9	0.200000	0.005627	0.950000	100.000000	0.200000	1	1	32	1	1	0.020690	0
36	narrow9	0.200000	0.001883	0.950000	100.000000	0.200000	1	1	23	1	1	0.072520	0
37	narrow9	0.200000	0.000010	0.950000	100.000000	0.200000	1	0	28	1	0	0.110480	0
38	narrow9	0.200000	0.007500	0.950000	100.000000	0.200000	0	1	21	1	1	0.072750	0
39	narrow9	0.200000	0.007500	0.950000	100.000000	0.200000	0	1	22	1	1	0.084670	0
40	narrow9	0.200000	0.000010	0.950000	100.000000	0.200000	0	1	34	1	1	0.085980	0
41	narrow9	0.200000	0.005627	0.950000	100.000000	0.200000	1	1	6	1	1	0.092890	0
42	narrow9	0.200000	0.005627	0.950000	100.000000	0.200000	1	1	24	1	1	0.109980	0
43	narrow9	0.200000	0.007500	0.950000	100.000000	0.200000	1	1	24	1	1	0.129340	0
44	narrow9	0.200000	0.001883	0.950000	100.000000	0.200000	1	0	9	1	0	0.104710	0
45	narrow9	0.200000	0.007500	0.950000	100.000000	0.200000	1	1	37	1	1	0.104670	0
46	narrow9	0.200000	0.007500	0.950000	100.000000	0.200000	0	1	25	1	1	0.069820	0
47	narrow9	0.200000	0.001883	0.950000	100.000000	0.200000	1	0	3	1	0	0.052050	0
48	narrow9	0.200000	0.003755	0.950000	100.000000	0.200000	1	1	30	1	1	0.133790	0
49	narrow9	0.200000	0.000010	0.950000	100.000000	0.200000	1	0	32	1	0	0.113060	0
50	narrow9	0.200000	0.005627	0.950000	100.000000	0.200000	0	1	16	1	1	0.113090	0
51	narrow9	0.200000	0.003755	0.950000	100.000000	0.200000	1	1	14	1	1	0.127120	0
52	narrow9	0.200000	0.001883	0.950000	100.000000	0.200000	0	0	36	1	0	0.107020	0
53	narrow9	0.200000	0.003755	0.950000	100.000000	0.200000	0	0	0	1	0	0.107660	0
54	narrow9	0.200000	0.000010	0.950000	100.000000	0.200000	0	0	18	0	1	0.101140	0
55	narrow9	0.200000	0.007500	0.950000	100.000000	0.200000	1	1	34	1	1	0.100410	0
56	narrow9	0.200000	0.007500	0.950000	100.000000	0.200000	0	0	37	0	1	0.080330	0
57	narrow9	0.200000	0.003755	0.950000	100.000000	0.200000	1	0	4	1	0	0.107480	0
58	narrow9	0.200000	0.005627	0.950000	100.000000	0.200000	1	0	4	0	1	0.108570	0
59	narrow9	0.200000	0.001883	0.950000	100.000000	0.200000	1	0	9	0	1	0.123400	0
60	narrow9	0.200000	0.007500	0.950000	100.000000	0.200000	1	0	26	0	1	0.104040	0
61	narrow9	0.200000	0.000010	0.950000	100.000000	0.200000	0	1	36	1	1	0.128400	0
62	narrow9	0.200000	0.003755	0.950000	100.000000	0.200000	1	0	18	0	1	0.119360	0
63	narrow9	0.200000	0.003755	0.950000	100.000000	0.200000	1	1	35	1	1	0.102780	0
64	narrow9	0.200000	0.001883	0.950000	100.000000	0.200000	0	0	38	0	1	0.101900	0
65	narrow9	0.200000	0.005627	0.950000	100.000000	0.200000	1	1	8	1	1	0.114330	0
66	narrow9	0.200000	0.007500	0.950000	100.000000	0.200000	0	0	21	0	1	0.057560	0
67	narrow9	0.200000	0.003755	0.950000	100.000000	0.200000	1	0	23	0	1	0.073480	0
68	narrow9	0.200000	0.001883	0.950000	100.000000	0.200000	1	0	28	0	1	0.086840	0
69	narrow9	0.200000	0.005627	0.950000	100.000000	0.200000	0	1	9	1	1	0.096750	0
70	narrow9	0.200000	0.007500	0.950000	100.000000	0.200000	0	1	20	1	1	0.071390	0
71	narrow9	0.200000	0.003755	0.950000	100.000000	0.200000	0	1	24	1	1	0.095040	0
72	narrow9	0.200000	0.007500	0.950000	100.000000	0.200000	0	0	3	0	1	0.064780	0
73	narrow9	0.200000	0.001883	0.950000	100.000000	0.200000	1	0	24	0	1	0.087480	0
74	narrow9	0.200000	0.001883	0.950000	100.000000	0.200000	0	1	5	1	1	0.155810	0
75	narrow9	0.200000	0.001883	0.950000	100.000000	0.200000	1	0	10	0	1	0.127550	0
76	narrow9	0.200000	0.000010	0.950000	100.000000	0.200000	0	0	16	1	0	0.104200	0
77	narrow9	0.200000	0.003755	0.950000	100.000000	0.200000	0	1	7	1	1	0.068290	0
78	narrow9	0.200000	0.001883	0.950000	100.000000	0.200000	0	1	18	0	0	0.127690	0
79	narrow9	0.200000	0.001883	0.950000	100.000000	0.200000	1	0	27	1	0	0.118670	0
80	narrow9	0.200000	0.000010	0.950000	100.000000	0.200000	0	0	2	1	0	0.144790	0
81	narrow9	0.200000	0.000010	0.950000	100.000000	0.200000	1	1	27	0	0	0.153120	0
82	narrow9	0.200000	0.000010	0.950000	100.000000	0.200000	0	0	15	1	0	0.031310	0
83	narrow9	0.200000	0.001883	0.950000	100.000000	0.200000	0	0	13	0	1	0.113350	0
84	narrow9	0.200000	0.003755	0.950000	100.000000	0.200000	1	0	0	0	1	0.081570	0
85	narrow9	0.200000	0.001883	0.950000	100.000000	0.200000	0	1	30	1	1	0.094200	0
86	narrow9	0.200000	0.001883	0.950000	100.000000	0.200000	1	0	13	0	1	0.093560	0
87	narrow9	0.200000	0.005627	0.950000	100.000000	0.200000	1	0	36	0	1	0.082750	0
88	narrow9	0.200000	0.007500	0.950000	100.000000	0.200000	1	0	23	0	1	0.057830	0
89	narrow9	0.200000	0.005627	0.950000	100.000000	0.200000	0	0	34	0	1	0.080420	0
90	narrow9	0.200000	0.000010	0.950000	100.000000	0.200000	0	0	24	0	1	0.100900	0
91	narrow9	0.200000	0.005627	0.950000	100.000000	0.200000	0	1	26	1	1	0.105070	0
92	narrow9	0.200000	0.007500	0.950000	100.000000	0.200000	0	1	2	1	1	0.092310	0
93	narrow9	0.200000	0.005627	0.950000	100.000000	0.200000	1	0	26	0	1	0.032570	0
94	narrow9	0.200000	0.001883	0.950000	100.000000	0.200000	0	0	37	0	1	0.077600	0
95	narrow9	0.200000	0.000010	0.950000	100.000000	0.200000	0	0	15	0	1	0.099770	0
96	narrow9	0.200000	0.003755	0.950000	100.000000	0.200000	1	0	7	0	1	0.084130	0
97	narrow9	0.200000	0.003755	0.950000	100.000000	0.200000	1	1	22	1	1	0.105610	0
98	narrow9	0.200000	0.000010	0.950000	100.000000	0.200000	1	1	31	0	0	0.112870	0
99	narrow9	0.200000	0.007500	0.950000	100.000000	0.200000	1	1	13	1	1	0.044260	0
