trial	noise	noise_contrast	edge_contrast	edge_width	mean_lum	stim_time	rotID	transID	maskID	resp	correct	resptime	dropframes
0	white	0.200000	0.007505	0.950000	100.000000	0.200000	0	1	19	1	1	0.078540	0
1	white	0.200000	0.007505	0.950000	100.000000	0.200000	1	0	20	0	1	0.090750	0
2	white	0.200000	0.003757	0.950000	100.000000	0.200000	1	1	18	1	1	0.092420	0
3	white	0.200000	0.007505	0.950000	100.000000	0.200000	0	1	3	0	0	0.136120	0
4	white	0.200000	0.000010	0.950000	100.000000	0.200000	0	0	28	1	0	0.081000	0
5	white	0.200000	0.011252	0.950000	100.000000	0.200000	1	0	37	0	1	0.125960	0
6	white	0.200000	0.000010	0.950000	100.000000	0.200000	0	0	8	0	1	0.182450	0
7	white	0.200000	0.007505	0.950000	100.000000	0.200000	0	1	28	1	1	0.034690	0
8	white	0.200000	0.015000	0.950000	100.000000	0.200000	1	0	19	0	1	0.181980	0
9	white	0.200000	0.000010	0.950000	100.000000	0.200000	1	0	39	0	1	0.135360	0
10	white	0.200000	0.003757	0.950000	100.000000	0.200000	0	1	24	0	0	0.109390	0
11	white	0.200000	0.003757	0.950000	100.000000	0.200000	0	0	7	0	1	0.114000	0
12	white	0.200000	0.007505	0.950000	100.000000	0.200000	1	0	11	0	1	0.068800	0
13	white	0.200000	0.011252	0.950000	100.000000	0.200000	1	0	28	0	1	0.075730	0
14	white	0.200000	0.003757	0.950000	100.000000	0.200000	0	0	5	0	1	0.046500	0
15	white	0.200000	0.000010	0.950000	100.000000	0.200000	0	0	3	0	1	0.074030	0
16	white	0.200000	0.011252	0.950000	100.000000	0.200000	1	0	2	0	1	0.080250	0
17	white	0.200000	0.011252	0.950000	100.000000	0.200000	1	0	25	0	1	0.101450	0
18	white	0.200000	0.015000	0.950000	100.000000	0.200000	0	1	35	1	1	0.077450	0
19	white	0.200000	0.011252	0.950000	100.000000	0.200000	1	0	15	0	1	0.115720	0
20	white	0.200000	0.011252	0.950000	100.000000	0.200000	0	0	34	0	1	0.104220	0
21	white	0.200000	0.000010	0.950000	100.000000	0.200000	1	0	31	0	1	0.131550	0
22	white	0.200000	0.003757	0.950000	100.000000	0.200000	1	0	22	0	1	0.100910	0
23	white	0.200000	0.007505	0.950000	100.000000	0.200000	0	1	27	1	1	0.132170	0
24	white	0.200000	0.003757	0.950000	100.000000	0.200000	0	1	22	0	0	0.069860	0
25	white	0.200000	0.007505	0.950000	100.000000	0.200000	1	1	27	1	1	0.069460	0
26	white	0.200000	0.000010	0.950000	100.000000	0.200000	0	1	1	0	0	0.128420	0
27	white	0.200000	0.003757	0.950000	100.000000	0.200000	1	1	23	1	1	0.114920	0
28	white	0.200000	0.003757	0.950000	100.000000	0.200000	0	0	0	1	0	0.157940	0
29	white	0.200000	0.015000	0.950000	100.000000	0.200000	0	1	36	1	1	0.074040	0
30	white	0.200000	0.007505	0.950000	100.000000	0.200000	1	1	26	0	0	0.116460	0
31	white	0.200000	0.000010	0.950000	100.000000	0.200000	1	1	8	0	0	0.905510	0
32	white	0.200000	0.000010	0.950000	100.000000	0.200000	0	0	30	0	1	0.208650	0
33	white	0.200000	0.003757	0.950000	100.000000	0.200000	0	1	32	1	1	0.156240	0
34	white	0.200000	0.011252	0.950000	100.000000	0.200000	0	1	16	1	1	0.115080	0
35	white	0.200000	0.000010	0.950000	100.000000	0.200000	1	0	11	0	1	0.143890	0
36	white	0.200000	0.007505	0.950000	100.000000	0.200000	0	0	18	0	1	0.094190	0
37	white	0.200000	0.007505	0.950000	100.000000	0.200000	1	0	17	1	0	0.115920	0
38	white	0.200000	0.007505	0.950000	100.000000	0.200000	1	0	33	0	1	0.129130	0
39	white	0.200000	0.015000	0.950000	100.000000	0.200000	0	0	10	0	1	0.096920	0
40	white	0.200000	0.003757	0.950000	100.000000	0.200000	0	1	36	1	1	0.091990	0
41	white	0.200000	0.003757	0.950000	100.000000	0.200000	0	1	14	0	0	0.325870	0
42	white	0.200000	0.015000	0.950000	100.000000	0.200000	1	1	1	1	1	0.076600	0
43	white	0.200000	0.011252	0.950000	100.000000	0.200000	1	1	31	1	1	0.085130	0
44	white	0.200000	0.015000	0.950000	100.000000	0.200000	0	1	36	1	1	0.105890	0
45	white	0.200000	0.007505	0.950000	100.000000	0.200000	1	0	27	0	1	0.140610	0
46	white	0.200000	0.007505	0.950000	100.000000	0.200000	1	1	21	1	1	0.107220	0
47	white	0.200000	0.000010	0.950000	100.000000	0.200000	0	0	5	1	0	0.187500	0
48	white	0.200000	0.000010	0.950000	100.000000	0.200000	1	0	29	1	0	0.168760	0
49	white	0.200000	0.011252	0.950000	100.000000	0.200000	1	1	25	1	1	0.053200	0
50	white	0.200000	0.011252	0.950000	100.000000	0.200000	1	1	34	1	1	0.099800	0
51	white	0.200000	0.007505	0.950000	100.000000	0.200000	0	0	7	0	1	0.097100	0
52	white	0.200000	0.003757	0.950000	100.000000	0.200000	1	1	37	1	1	0.127820	0
53	white	0.200000	0.000010	0.950000	100.000000	0.200000	1	0	2	1	0	0.128530	0
54	white	0.200000	0.007505	0.950000	100.000000	0.200000	1	1	29	1	1	0.059260	0
55	white	0.200000	0.007505	0.950000	100.000000	0.200000	0	1	33	0	0	0.100530	0
56	white	0.200000	0.003757	0.950000	100.000000	0.200000	0	0	11	0	1	0.076620	0
57	white	0.200000	0.015000	0.950000	100.000000	0.200000	0	1	21	1	1	0.058630	0
58	white	0.200000	0.011252	0.950000	100.000000	0.200000	1	1	38	1	1	0.030990	0
59	white	0.200000	0.015000	0.950000	100.000000	0.200000	1	0	3	0	1	0.089170	0
60	white	0.200000	0.003757	0.950000	100.000000	0.200000	0	1	4	1	1	0.130300	0
61	white	0.200000	0.003757	0.950000	100.000000	0.200000	1	1	23	1	1	0.124470	0
62	white	0.200000	0.015000	0.950000	100.000000	0.200000	0	0	8	0	1	0.005840	0
63	white	0.200000	0.015000	0.950000	100.000000	0.200000	1	0	16	0	1	0.078620	0
64	white	0.200000	0.003757	0.950000	100.000000	0.200000	0	1	15	1	1	0.111150	0
65	white	0.200000	0.000010	0.950000	100.000000	0.200000	0	0	6	1	0	0.122270	0
66	white	0.200000	0.000010	0.950000	100.000000	0.200000	0	0	2	0	1	0.111340	0
67	white	0.200000	0.015000	0.950000	100.000000	0.200000	0	0	7	0	1	0.072340	0
68	white	0.200000	0.011252	0.950000	100.000000	0.200000	1	0	25	0	1	0.011380	0
69	white	0.200000	0.015000	0.950000	100.000000	0.200000	0	1	4	1	1	0.062710	0
70	white	0.200000	0.000010	0.950000	100.000000	0.200000	0	0	2	0	1	0.062900	0
71	white	0.200000	0.011252	0.950000	100.000000	0.200000	1	1	28	0	0	0.115880	0
72	white	0.200000	0.003757	0.950000	100.000000	0.200000	1	0	1	1	0	0.244520	0
73	white	0.200000	0.015000	0.950000	100.000000	0.200000	0	1	22	1	1	0.027860	0
74	white	0.200000	0.011252	0.950000	100.000000	0.200000	1	0	12	0	1	0.099450	0
75	white	0.200000	0.007505	0.950000	100.000000	0.200000	1	0	24	0	1	0.150030	0
76	white	0.200000	0.015000	0.950000	100.000000	0.200000	1	1	22	1	1	0.070390	0
77	white	0.200000	0.007505	0.950000	100.000000	0.200000	0	1	38	1	1	0.138600	0
78	white	0.200000	0.015000	0.950000	100.000000	0.200000	1	1	38	1	1	0.135120	0
79	white	0.200000	0.000010	0.950000	100.000000	0.200000	0	0	34	1	0	0.106480	0
80	white	0.200000	0.011252	0.950000	100.000000	0.200000	0	0	17	0	1	0.106310	0
81	white	0.200000	0.000010	0.950000	100.000000	0.200000	0	0	9	1	0	0.168060	0
82	white	0.200000	0.015000	0.950000	100.000000	0.200000	0	1	22	1	1	0.161260	0
83	white	0.200000	0.003757	0.950000	100.000000	0.200000	0	1	23	0	0	0.096220	0
84	white	0.200000	0.015000	0.950000	100.000000	0.200000	0	1	32	1	1	0.086830	0
85	white	0.200000	0.011252	0.950000	100.000000	0.200000	1	1	20	1	1	0.104340	0
86	white	0.200000	0.003757	0.950000	100.000000	0.200000	1	1	33	1	1	0.129250	0
87	white	0.200000	0.015000	0.950000	100.000000	0.200000	0	1	35	1	1	0.113440	0
88	white	0.200000	0.007505	0.950000	100.000000	0.200000	1	0	14	0	1	0.065150	0
89	white	0.200000	0.011252	0.950000	100.000000	0.200000	1	1	7	1	1	0.074330	0
90	white	0.200000	0.000010	0.950000	100.000000	0.200000	1	1	22	1	1	0.187310	0
91	white	0.200000	0.015000	0.950000	100.000000	0.200000	1	1	5	1	1	0.059030	0
92	white	0.200000	0.015000	0.950000	100.000000	0.200000	1	1	10	1	1	0.051490	0
93	white	0.200000	0.011252	0.950000	100.000000	0.200000	0	0	39	0	1	0.105760	0
94	white	0.200000	0.000010	0.950000	100.000000	0.200000	1	1	30	0	0	0.123650	0
95	white	0.200000	0.011252	0.950000	100.000000	0.200000	0	1	31	1	1	0.045470	0
96	white	0.200000	0.011252	0.950000	100.000000	0.200000	1	0	7	0	1	0.089320	0
97	white	0.200000	0.007505	0.950000	100.000000	0.200000	0	1	36	1	1	0.170430	0
98	white	0.200000	0.003757	0.950000	100.000000	0.200000	1	1	21	1	1	0.136100	0
99	white	0.200000	0.000010	0.950000	100.000000	0.200000	0	0	24	1	0	0.129150	0
