trial	noise	noise_contrast	edge_contrast	edge_width	mean_lum	stim_time	rotID	transID	maskID	resp	correct	resptime	dropframes
0	none	0.200000	0.005000	0.950000	100.000000	0.200000	1	0	14	0	1	0.050770	0
1	none	0.200000	0.000010	0.950000	100.000000	0.200000	0	0	38	1	0	0.108320	0
2	none	0.200000	0.002505	0.950000	100.000000	0.200000	0	0	2	0	1	0.066170	0
3	none	0.200000	0.005000	0.950000	100.000000	0.200000	1	1	10	1	1	0.094900	0
4	none	0.200000	0.003753	0.950000	100.000000	0.200000	0	0	7	0	1	0.131920	0
5	none	0.200000	0.001258	0.950000	100.000000	0.200000	0	1	21	1	1	0.049740	0
6	none	0.200000	0.001258	0.950000	100.000000	0.200000	1	1	19	0	0	0.098790	0
7	none	0.200000	0.000010	0.950000	100.000000	0.200000	0	0	37	1	0	0.143460	0
8	none	0.200000	0.005000	0.950000	100.000000	0.200000	1	1	0	1	1	0.065170	0
9	none	0.200000	0.000010	0.950000	100.000000	0.200000	1	1	0	1	1	0.082970	0
10	none	0.200000	0.005000	0.950000	100.000000	0.200000	0	1	23	1	1	0.072100	0
11	none	0.200000	0.005000	0.950000	100.000000	0.200000	0	1	34	1	1	0.064790	0
12	none	0.200000	0.003753	0.950000	100.000000	0.200000	1	0	28	0	1	0.091150	0
13	none	0.200000	0.003753	0.950000	100.000000	0.200000	1	1	19	1	1	0.084830	0
14	none	0.200000	0.001258	0.950000	100.000000	0.200000	1	1	25	1	1	0.073210	0
15	none	0.200000	0.005000	0.950000	100.000000	0.200000	0	1	26	1	1	0.070640	0
16	none	0.200000	0.002505	0.950000	100.000000	0.200000	1	1	31	0	0	0.066160	0
17	none	0.200000	0.000010	0.950000	100.000000	0.200000	1	1	31	1	1	0.085890	0
18	none	0.200000	0.002505	0.950000	100.000000	0.200000	0	1	35	1	1	0.056320	0
19	none	0.200000	0.001258	0.950000	100.000000	0.200000	1	1	3	0	0	0.082910	0
20	none	0.200000	0.001258	0.950000	100.000000	0.200000	0	0	26	1	0	0.089090	0
21	none	0.200000	0.003753	0.950000	100.000000	0.200000	0	1	12	1	1	0.046120	0
22	none	0.200000	0.000010	0.950000	100.000000	0.200000	0	1	20	1	1	0.255890	0
23	none	0.200000	0.003753	0.950000	100.000000	0.200000	1	1	13	1	1	0.085590	0
24	none	0.200000	0.002505	0.950000	100.000000	0.200000	1	1	37	1	1	0.071810	0
25	none	0.200000	0.002505	0.950000	100.000000	0.200000	1	1	23	0	0	0.089310	1
26	none	0.200000	0.002505	0.950000	100.000000	0.200000	1	0	26	1	0	0.112730	0
27	none	0.200000	0.003753	0.950000	100.000000	0.200000	1	0	7	0	1	0.120500	0
28	none	0.200000	0.005000	0.950000	100.000000	0.200000	1	1	10	1	1	0.050290	0
29	none	0.200000	0.003753	0.950000	100.000000	0.200000	1	1	1	1	1	0.064140	0
30	none	0.200000	0.003753	0.950000	100.000000	0.200000	0	1	19	1	1	0.086610	0
31	none	0.200000	0.001258	0.950000	100.000000	0.200000	0	0	31	0	1	0.055280	0
32	none	0.200000	0.002505	0.950000	100.000000	0.200000	1	1	39	1	1	0.077840	0
33	none	0.200000	0.005000	0.950000	100.000000	0.200000	0	1	0	1	1	0.148790	0
34	none	0.200000	0.001258	0.950000	100.000000	0.200000	0	1	33	0	0	0.070930	0
35	none	0.200000	0.005000	0.950000	100.000000	0.200000	1	1	31	1	1	0.060560	0
36	none	0.200000	0.001258	0.950000	100.000000	0.200000	1	1	37	1	1	0.069670	0
37	none	0.200000	0.000010	0.950000	100.000000	0.200000	0	0	30	0	1	0.071270	0
38	none	0.200000	0.001258	0.950000	100.000000	0.200000	0	1	30	1	1	0.055770	0
39	none	0.200000	0.005000	0.950000	100.000000	0.200000	1	0	5	0	1	0.043920	0
40	none	0.200000	0.000010	0.950000	100.000000	0.200000	0	1	34	1	1	0.041670	0
41	none	0.200000	0.002505	0.950000	100.000000	0.200000	1	1	18	0	0	0.048690	0
42	none	0.200000	0.000010	0.950000	100.000000	0.200000	0	1	36	0	0	0.097470	0
43	none	0.200000	0.002505	0.950000	100.000000	0.200000	1	1	10	1	1	0.071910	0
44	none	0.200000	0.000010	0.950000	100.000000	0.200000	0	1	9	1	1	0.051310	0
45	none	0.200000	0.003753	0.950000	100.000000	0.200000	1	0	6	0	1	0.035770	0
46	none	0.200000	0.005000	0.950000	100.000000	0.200000	1	1	36	1	1	0.042940	0
47	none	0.200000	0.001258	0.950000	100.000000	0.200000	1	0	26	0	1	0.053390	0
48	none	0.200000	0.003753	0.950000	100.000000	0.200000	1	0	32	1	0	0.030350	0
49	none	0.200000	0.000010	0.950000	100.000000	0.200000	0	0	27	1	0	0.051370	0
50	none	0.200000	0.000010	0.950000	100.000000	0.200000	1	0	2	0	1	0.187260	0
51	none	0.200000	0.000010	0.950000	100.000000	0.200000	1	1	36	0	0	0.099080	0
52	none	0.200000	0.000010	0.950000	100.000000	0.200000	1	1	23	0	0	0.089590	0
53	none	0.200000	0.002505	0.950000	100.000000	0.200000	0	0	35	1	0	0.113080	0
54	none	0.200000	0.001258	0.950000	100.000000	0.200000	1	0	5	1	0	0.073350	0
55	none	0.200000	0.002505	0.950000	100.000000	0.200000	1	1	4	0	0	0.112680	0
56	none	0.200000	0.003753	0.950000	100.000000	0.200000	0	0	25	0	1	0.126970	0
57	none	0.200000	0.000010	0.950000	100.000000	0.200000	0	0	22	1	0	0.106710	0
58	none	0.200000	0.000010	0.950000	100.000000	0.200000	1	0	11	0	1	0.097500	0
59	none	0.200000	0.003753	0.950000	100.000000	0.200000	1	1	16	1	1	0.067940	0
60	none	0.200000	0.001258	0.950000	100.000000	0.200000	0	0	18	1	0	0.171990	0
61	none	0.200000	0.005000	0.950000	100.000000	0.200000	1	1	33	1	1	0.082140	0
62	none	0.200000	0.003753	0.950000	100.000000	0.200000	1	0	3	1	0	0.215200	0
63	none	0.200000	0.000010	0.950000	100.000000	0.200000	1	0	32	0	1	0.180030	0
64	none	0.200000	0.001258	0.950000	100.000000	0.200000	0	0	10	0	1	0.085630	0
65	none	0.200000	0.001258	0.950000	100.000000	0.200000	0	1	16	0	0	0.115040	0
66	none	0.200000	0.003753	0.950000	100.000000	0.200000	0	1	28	1	1	0.118830	0
67	none	0.200000	0.002505	0.950000	100.000000	0.200000	1	0	29	0	1	0.084650	0
68	none	0.200000	0.003753	0.950000	100.000000	0.200000	1	0	8	1	0	0.094140	0
69	none	0.200000	0.000010	0.950000	100.000000	0.200000	0	1	26	1	1	0.125570	0
70	none	0.200000	0.005000	0.950000	100.000000	0.200000	0	0	34	0	1	0.119720	0
71	none	0.200000	0.005000	0.950000	100.000000	0.200000	1	0	35	0	1	0.065720	0
72	none	0.200000	0.001258	0.950000	100.000000	0.200000	1	1	7	0	0	0.059350	0
73	none	0.200000	0.002505	0.950000	100.000000	0.200000	0	0	1	1	0	0.118920	0
74	none	0.200000	0.003753	0.950000	100.000000	0.200000	0	1	13	1	1	0.081810	0
75	none	0.200000	0.000010	0.950000	100.000000	0.200000	1	1	15	0	0	0.045480	0
76	none	0.200000	0.003753	0.950000	100.000000	0.200000	0	1	23	1	1	0.021770	0
77	none	0.200000	0.005000	0.950000	100.000000	0.200000	1	1	23	1	1	0.050760	0
78	none	0.200000	0.001258	0.950000	100.000000	0.200000	1	1	31	1	1	0.041260	0
79	none	0.200000	0.005000	0.950000	100.000000	0.200000	0	0	11	0	1	0.032120	0
80	none	0.200000	0.005000	0.950000	100.000000	0.200000	0	0	20	0	1	0.035380	0
81	none	0.200000	0.002505	0.950000	100.000000	0.200000	0	1	35	1	1	0.111470	0
82	none	0.200000	0.002505	0.950000	100.000000	0.200000	1	1	35	1	1	0.096070	0
83	none	0.200000	0.002505	0.950000	100.000000	0.200000	0	1	12	1	1	0.093640	0
84	none	0.200000	0.003753	0.950000	100.000000	0.200000	1	0	29	1	0	0.174970	0
85	none	0.200000	0.003753	0.950000	100.000000	0.200000	1	0	24	0	1	0.050250	0
86	none	0.200000	0.005000	0.950000	100.000000	0.200000	0	1	28	1	1	0.075480	0
87	none	0.200000	0.001258	0.950000	100.000000	0.200000	1	1	24	0	0	0.091110	0
88	none	0.200000	0.000010	0.950000	100.000000	0.200000	0	0	31	1	0	0.044120	0
89	none	0.200000	0.002505	0.950000	100.000000	0.200000	0	1	7	1	1	0.097270	0
90	none	0.200000	0.002505	0.950000	100.000000	0.200000	0	1	20	0	0	0.097740	0
91	none	0.200000	0.003753	0.950000	100.000000	0.200000	0	1	11	1	1	0.097310	0
92	none	0.200000	0.000010	0.950000	100.000000	0.200000	0	1	24	1	1	0.062580	0
93	none	0.200000	0.001258	0.950000	100.000000	0.200000	1	1	31	0	0	0.112570	0
94	none	0.200000	0.005000	0.950000	100.000000	0.200000	1	0	5	0	1	0.083910	0
95	none	0.200000	0.001258	0.950000	100.000000	0.200000	0	1	32	1	1	0.084850	0
96	none	0.200000	0.002505	0.950000	100.000000	0.200000	1	1	10	0	0	0.005500	0
97	none	0.200000	0.001258	0.950000	100.000000	0.200000	1	0	31	1	0	0.063580	0
98	none	0.200000	0.002505	0.950000	100.000000	0.200000	0	0	2	1	0	0.104470	0
99	none	0.200000	0.005000	0.950000	100.000000	0.200000	0	0	26	0	1	0.061970	0
