trial	noise	noise_contrast	edge_contrast	edge_width	mean_lum	stim_time	rotID	transID	maskID	resp	correct	resptime	dropframes
0	pink2	0.200000	0.000010	0.150000	100.000000	0.200000	0	1	23	0	0	0.195050	0
1	pink2	0.200000	0.003005	0.150000	100.000000	0.200000	1	0	1	0	1	0.120700	0
2	pink2	0.200000	0.000010	0.150000	100.000000	0.200000	0	0	3	1	0	0.142740	0
3	pink2	0.200000	0.001508	0.150000	100.000000	0.200000	0	1	39	0	0	0.094050	0
4	pink2	0.200000	0.000010	0.150000	100.000000	0.200000	1	1	32	0	0	0.066990	0
5	pink2	0.200000	0.006000	0.150000	100.000000	0.200000	0	0	28	0	1	0.040340	0
6	pink2	0.200000	0.003005	0.150000	100.000000	0.200000	1	1	25	1	1	0.090050	0
7	pink2	0.200000	0.001508	0.150000	100.000000	0.200000	0	0	0	0	1	0.152730	0
8	pink2	0.200000	0.004502	0.150000	100.000000	0.200000	0	1	38	1	1	0.044670	0
9	pink2	0.200000	0.000010	0.150000	100.000000	0.200000	0	1	35	0	0	0.125980	0
10	pink2	0.200000	0.000010	0.150000	100.000000	0.200000	0	1	39	1	1	0.097040	0
11	pink2	0.200000	0.003005	0.150000	100.000000	0.200000	0	0	31	1	0	0.174760	0
12	pink2	0.200000	0.006000	0.150000	100.000000	0.200000	1	0	35	0	1	0.020160	0
13	pink2	0.200000	0.004502	0.150000	100.000000	0.200000	1	0	1	0	1	0.142320	0
14	pink2	0.200000	0.003005	0.150000	100.000000	0.200000	1	0	11	0	1	0.075640	0
15	pink2	0.200000	0.004502	0.150000	100.000000	0.200000	1	0	23	0	1	0.139500	0
16	pink2	0.200000	0.006000	0.150000	100.000000	0.200000	0	1	22	1	1	0.047380	0
17	pink2	0.200000	0.004502	0.150000	100.000000	0.200000	1	1	21	1	1	0.796570	0
18	pink2	0.200000	0.001508	0.150000	100.000000	0.200000	0	0	21	0	1	0.048490	0
19	pink2	0.200000	0.003005	0.150000	100.000000	0.200000	1	1	2	1	1	0.048330	0
20	pink2	0.200000	0.006000	0.150000	100.000000	0.200000	1	1	30	1	1	0.070790	0
21	pink2	0.200000	0.004502	0.150000	100.000000	0.200000	0	0	11	0	1	0.077540	0
22	pink2	0.200000	0.006000	0.150000	100.000000	0.200000	0	0	10	0	1	0.106250	0
23	pink2	0.200000	0.004502	0.150000	100.000000	0.200000	0	0	0	0	1	0.836680	0
24	pink2	0.200000	0.000010	0.150000	100.000000	0.200000	0	1	34	0	0	0.175170	0
25	pink2	0.200000	0.004502	0.150000	100.000000	0.200000	0	1	34	1	1	0.025720	0
26	pink2	0.200000	0.004502	0.150000	100.000000	0.200000	1	1	8	1	1	0.029210	0
27	pink2	0.200000	0.000010	0.150000	100.000000	0.200000	0	0	16	0	1	0.087180	0
28	pink2	0.200000	0.006000	0.150000	100.000000	0.200000	0	0	1	0	1	0.058640	0
29	pink2	0.200000	0.001508	0.150000	100.000000	0.200000	0	0	34	0	1	0.050780	0
30	pink2	0.200000	0.003005	0.150000	100.000000	0.200000	1	1	14	1	1	0.073410	0
31	pink2	0.200000	0.004502	0.150000	100.000000	0.200000	0	1	16	1	1	0.067960	0
32	pink2	0.200000	0.004502	0.150000	100.000000	0.200000	1	1	15	1	1	0.042990	0
33	pink2	0.200000	0.003005	0.150000	100.000000	0.200000	1	1	28	1	1	0.046310	0
34	pink2	0.200000	0.006000	0.150000	100.000000	0.200000	1	0	30	0	1	0.105350	0
35	pink2	0.200000	0.004502	0.150000	100.000000	0.200000	1	0	32	0	1	0.052680	0
36	pink2	0.200000	0.004502	0.150000	100.000000	0.200000	1	0	3	0	1	0.049580	0
37	pink2	0.200000	0.006000	0.150000	100.000000	0.200000	0	1	33	1	1	0.045150	0
38	pink2	0.200000	0.006000	0.150000	100.000000	0.200000	0	0	9	0	1	0.103670	0
39	pink2	0.200000	0.001508	0.150000	100.000000	0.200000	0	1	0	1	1	0.207800	0
40	pink2	0.200000	0.003005	0.150000	100.000000	0.200000	1	1	6	1	1	0.117260	0
41	pink2	0.200000	0.000010	0.150000	100.000000	0.200000	0	0	32	1	0	0.081730	0
42	pink2	0.200000	0.000010	0.150000	100.000000	0.200000	1	1	18	1	1	0.029730	1
43	pink2	0.200000	0.000010	0.150000	100.000000	0.200000	1	1	27	1	1	0.142490	0
44	pink2	0.200000	0.006000	0.150000	100.000000	0.200000	1	0	33	0	1	0.064780	0
45	pink2	0.200000	0.004502	0.150000	100.000000	0.200000	0	0	33	0	1	0.003670	0
46	pink2	0.200000	0.003005	0.150000	100.000000	0.200000	0	0	5	0	1	0.062560	0
47	pink2	0.200000	0.004502	0.150000	100.000000	0.200000	1	0	26	0	1	0.059440	0
48	pink2	0.200000	0.001508	0.150000	100.000000	0.200000	0	0	26	0	1	0.048780	0
49	pink2	0.200000	0.006000	0.150000	100.000000	0.200000	1	1	4	1	1	0.018500	0
50	pink2	0.200000	0.006000	0.150000	100.000000	0.200000	0	0	2	0	1	0.829760	0
51	pink2	0.200000	0.006000	0.150000	100.000000	0.200000	0	1	16	1	1	0.021130	0
52	pink2	0.200000	0.000010	0.150000	100.000000	0.200000	1	0	33	0	1	0.099850	0
53	pink2	0.200000	0.001508	0.150000	100.000000	0.200000	0	0	18	0	1	0.040620	0
54	pink2	0.200000	0.003005	0.150000	100.000000	0.200000	1	0	37	1	0	0.050320	0
55	pink2	0.200000	0.001508	0.150000	100.000000	0.200000	0	0	22	0	1	0.118890	0
56	pink2	0.200000	0.006000	0.150000	100.000000	0.200000	1	1	10	1	1	0.029890	0
57	pink2	0.200000	0.006000	0.150000	100.000000	0.200000	0	0	1	0	1	0.003720	0
58	pink2	0.200000	0.000010	0.150000	100.000000	0.200000	1	0	1	1	0	0.141100	0
59	pink2	0.200000	0.000010	0.150000	100.000000	0.200000	1	0	32	1	0	0.123350	0
60	pink2	0.200000	0.006000	0.150000	100.000000	0.200000	0	0	26	0	1	0.023260	0
61	pink2	0.200000	0.000010	0.150000	100.000000	0.200000	0	1	32	1	1	0.110770	0
62	pink2	0.200000	0.003005	0.150000	100.000000	0.200000	0	1	37	0	0	0.107000	0
63	pink2	0.200000	0.001508	0.150000	100.000000	0.200000	0	1	0	0	0	0.099820	0
64	pink2	0.200000	0.004502	0.150000	100.000000	0.200000	1	1	11	1	1	0.024480	0
65	pink2	0.200000	0.003005	0.150000	100.000000	0.200000	1	1	11	1	1	0.205630	0
66	pink2	0.200000	0.003005	0.150000	100.000000	0.200000	0	1	17	1	1	0.011170	0
67	pink2	0.200000	0.001508	0.150000	100.000000	0.200000	1	1	21	1	1	0.085890	0
68	pink2	0.200000	0.004502	0.150000	100.000000	0.200000	0	0	20	1	0	0.053790	0
69	pink2	0.200000	0.003005	0.150000	100.000000	0.200000	1	1	38	1	1	0.124680	0
70	pink2	0.200000	0.006000	0.150000	100.000000	0.200000	1	1	38	1	1	0.075050	0
71	pink2	0.200000	0.003005	0.150000	100.000000	0.200000	1	0	25	1	0	0.203620	0
72	pink2	0.200000	0.001508	0.150000	100.000000	0.200000	1	0	9	1	0	0.126840	0
73	pink2	0.200000	0.004502	0.150000	100.000000	0.200000	0	0	6	0	1	0.086340	0
74	pink2	0.200000	0.003005	0.150000	100.000000	0.200000	1	1	7	1	1	0.118110	0
75	pink2	0.200000	0.001508	0.150000	100.000000	0.200000	0	0	14	0	1	0.642620	0
76	pink2	0.200000	0.004502	0.150000	100.000000	0.200000	1	0	31	0	1	0.113320	0
77	pink2	0.200000	0.003005	0.150000	100.000000	0.200000	0	0	5	1	0	0.098650	0
78	pink2	0.200000	0.001508	0.150000	100.000000	0.200000	1	1	2	0	0	0.217810	0
79	pink2	0.200000	0.004502	0.150000	100.000000	0.200000	1	0	16	0	1	0.137000	0
80	pink2	0.200000	0.001508	0.150000	100.000000	0.200000	1	0	2	0	1	0.197090	0
81	pink2	0.200000	0.000010	0.150000	100.000000	0.200000	1	1	18	1	1	0.181310	0
82	pink2	0.200000	0.006000	0.150000	100.000000	0.200000	0	1	22	1	1	0.099990	0
83	pink2	0.200000	0.001508	0.150000	100.000000	0.200000	0	1	25	1	1	0.132650	0
84	pink2	0.200000	0.003005	0.150000	100.000000	0.200000	1	0	20	0	1	0.132470	0
85	pink2	0.200000	0.000010	0.150000	100.000000	0.200000	0	1	28	0	0	0.231560	0
86	pink2	0.200000	0.001508	0.150000	100.000000	0.200000	1	1	9	1	1	0.193140	0
87	pink2	0.200000	0.000010	0.150000	100.000000	0.200000	1	0	27	0	1	0.105500	0
88	pink2	0.200000	0.000010	0.150000	100.000000	0.200000	1	1	24	1	1	0.101760	0
89	pink2	0.200000	0.000010	0.150000	100.000000	0.200000	0	1	25	1	1	0.169650	0
90	pink2	0.200000	0.001508	0.150000	100.000000	0.200000	1	1	19	0	0	0.101560	0
91	pink2	0.200000	0.003005	0.150000	100.000000	0.200000	0	1	13	1	1	0.146750	0
92	pink2	0.200000	0.004502	0.150000	100.000000	0.200000	1	1	28	1	1	0.107850	0
93	pink2	0.200000	0.003005	0.150000	100.000000	0.200000	0	1	3	1	1	0.096470	0
94	pink2	0.200000	0.001508	0.150000	100.000000	0.200000	0	0	19	0	1	0.175310	0
95	pink2	0.200000	0.001508	0.150000	100.000000	0.200000	0	1	12	1	1	0.144150	0
96	pink2	0.200000	0.000010	0.150000	100.000000	0.200000	1	0	24	1	0	0.172870	0
97	pink2	0.200000	0.001508	0.150000	100.000000	0.200000	1	0	20	0	1	0.080740	0
98	pink2	0.200000	0.006000	0.150000	100.000000	0.200000	1	1	37	1	1	0.058160	0
99	pink2	0.200000	0.006000	0.150000	100.000000	0.200000	0	0	27	0	1	0.042740	0
