trial	noise	noise_contrast	edge_contrast	edge_width	mean_lum	stim_time	rotID	transID	maskID	resp	correct	resptime	dropframes
0	narrow9	0.200000	0.001883	0.950000	100.000000	0.200000	1	1	14	0	0	0.321480	0
1	narrow9	0.200000	0.001883	0.950000	100.000000	0.200000	0	0	30	0	1	0.309810	0
2	narrow9	0.200000	0.007500	0.950000	100.000000	0.200000	1	1	6	1	1	0.132180	0
3	narrow9	0.200000	0.005627	0.950000	100.000000	0.200000	1	0	3	0	1	0.141870	0
4	narrow9	0.200000	0.005627	0.950000	100.000000	0.200000	0	1	2	1	1	0.137440	0
5	narrow9	0.200000	0.001883	0.950000	100.000000	0.200000	0	0	35	1	0	0.203470	0
6	narrow9	0.200000	0.005627	0.950000	100.000000	0.200000	1	0	25	0	1	0.078030	0
7	narrow9	0.200000	0.001883	0.950000	100.000000	0.200000	1	1	12	0	0	0.286890	0
8	narrow9	0.200000	0.001883	0.950000	100.000000	0.200000	1	0	24	0	1	0.164390	0
9	narrow9	0.200000	0.003755	0.950000	100.000000	0.200000	0	0	1	0	1	0.173570	0
10	narrow9	0.200000	0.003755	0.950000	100.000000	0.200000	1	0	1	0	1	0.132030	0
11	narrow9	0.200000	0.000010	0.950000	100.000000	0.200000	0	1	28	1	1	0.298700	0
12	narrow9	0.200000	0.001883	0.950000	100.000000	0.200000	0	1	12	0	0	0.192110	0
13	narrow9	0.200000	0.001883	0.950000	100.000000	0.200000	1	1	24	1	1	0.228360	0
14	narrow9	0.200000	0.005627	0.950000	100.000000	0.200000	0	1	14	1	1	0.149810	0
15	narrow9	0.200000	0.005627	0.950000	100.000000	0.200000	1	0	4	0	1	0.098070	0
16	narrow9	0.200000	0.005627	0.950000	100.000000	0.200000	1	0	34	0	1	0.083210	0
17	narrow9	0.200000	0.001883	0.950000	100.000000	0.200000	1	0	3	0	1	0.283700	0
18	narrow9	0.200000	0.001883	0.950000	100.000000	0.200000	0	1	8	1	1	0.109870	0
19	narrow9	0.200000	0.007500	0.950000	100.000000	0.200000	0	1	18	1	1	0.242630	0
20	narrow9	0.200000	0.003755	0.950000	100.000000	0.200000	1	1	9	1	1	0.184860	0
21	narrow9	0.200000	0.007500	0.950000	100.000000	0.200000	1	1	15	1	1	0.484590	0
22	narrow9	0.200000	0.003755	0.950000	100.000000	0.200000	1	1	9	1	1	0.149420	0
23	narrow9	0.200000	0.007500	0.950000	100.000000	0.200000	0	1	4	1	1	0.105100	0
24	narrow9	0.200000	0.000010	0.950000	100.000000	0.200000	0	1	8	1	1	0.562230	0
25	narrow9	0.200000	0.000010	0.950000	100.000000	0.200000	1	1	34	1	1	0.171770	0
26	narrow9	0.200000	0.001883	0.950000	100.000000	0.200000	0	0	21	0	1	0.118060	0
27	narrow9	0.200000	0.000010	0.950000	100.000000	0.200000	1	1	37	1	1	0.158190	0
28	narrow9	0.200000	0.007500	0.950000	100.000000	0.200000	0	1	0	1	1	0.161380	0
29	narrow9	0.200000	0.003755	0.950000	100.000000	0.200000	0	0	37	0	1	0.146670	0
30	narrow9	0.200000	0.005627	0.950000	100.000000	0.200000	0	0	9	0	1	0.175470	0
31	narrow9	0.200000	0.005627	0.950000	100.000000	0.200000	1	1	18	1	1	0.086240	0
32	narrow9	0.200000	0.003755	0.950000	100.000000	0.200000	1	1	8	1	1	0.089220	0
33	narrow9	0.200000	0.001883	0.950000	100.000000	0.200000	0	0	22	0	1	0.171150	0
34	narrow9	0.200000	0.003755	0.950000	100.000000	0.200000	1	0	16	0	1	0.109120	0
35	narrow9	0.200000	0.005627	0.950000	100.000000	0.200000	1	0	21	0	1	0.184040	0
36	narrow9	0.200000	0.007500	0.950000	100.000000	0.200000	0	1	4	1	1	0.110590	0
37	narrow9	0.200000	0.000010	0.950000	100.000000	0.200000	1	0	25	0	1	0.117630	0
38	narrow9	0.200000	0.000010	0.950000	100.000000	0.200000	0	0	0	1	0	0.456150	0
39	narrow9	0.200000	0.005627	0.950000	100.000000	0.200000	0	1	38	1	1	0.120770	0
40	narrow9	0.200000	0.003755	0.950000	100.000000	0.200000	0	0	37	0	1	0.085610	0
41	narrow9	0.200000	0.005627	0.950000	100.000000	0.200000	1	1	38	1	1	0.089820	0
42	narrow9	0.200000	0.003755	0.950000	100.000000	0.200000	0	1	13	1	1	0.443120	0
43	narrow9	0.200000	0.003755	0.950000	100.000000	0.200000	1	0	6	0	1	0.189880	0
44	narrow9	0.200000	0.000010	0.950000	100.000000	0.200000	0	1	37	0	0	0.472260	0
45	narrow9	0.200000	0.000010	0.950000	100.000000	0.200000	0	0	28	1	0	0.351420	0
46	narrow9	0.200000	0.000010	0.950000	100.000000	0.200000	1	0	15	0	1	0.222830	0
47	narrow9	0.200000	0.003755	0.950000	100.000000	0.200000	1	1	31	1	1	0.128580	0
48	narrow9	0.200000	0.001883	0.950000	100.000000	0.200000	0	1	23	1	1	0.109460	0
49	narrow9	0.200000	0.007500	0.950000	100.000000	0.200000	1	1	13	1	1	0.127950	0
50	narrow9	0.200000	0.000010	0.950000	100.000000	0.200000	0	1	6	0	0	0.595260	0
51	narrow9	0.200000	0.000010	0.950000	100.000000	0.200000	0	0	31	1	0	0.202030	0
52	narrow9	0.200000	0.007500	0.950000	100.000000	0.200000	0	0	18	0	1	0.121620	0
53	narrow9	0.200000	0.001883	0.950000	100.000000	0.200000	0	1	12	0	0	0.228540	0
54	narrow9	0.200000	0.007500	0.950000	100.000000	0.200000	1	0	33	0	1	0.320720	0
55	narrow9	0.200000	0.001883	0.950000	100.000000	0.200000	0	0	5	0	1	0.290630	0
56	narrow9	0.200000	0.005627	0.950000	100.000000	0.200000	1	0	39	0	1	0.208850	0
57	narrow9	0.200000	0.007500	0.950000	100.000000	0.200000	1	0	38	0	1	0.127920	0
58	narrow9	0.200000	0.007500	0.950000	100.000000	0.200000	1	0	39	0	1	0.145260	0
59	narrow9	0.200000	0.005627	0.950000	100.000000	0.200000	0	0	12	0	1	0.078170	0
60	narrow9	0.200000	0.005627	0.950000	100.000000	0.200000	1	1	33	1	1	0.083730	0
61	narrow9	0.200000	0.005627	0.950000	100.000000	0.200000	0	0	28	0	1	0.090140	0
62	narrow9	0.200000	0.003755	0.950000	100.000000	0.200000	1	0	26	0	1	0.160470	0
63	narrow9	0.200000	0.005627	0.950000	100.000000	0.200000	1	1	34	1	1	0.070350	0
64	narrow9	0.200000	0.005627	0.950000	100.000000	0.200000	1	1	15	1	1	0.096610	0
65	narrow9	0.200000	0.007500	0.950000	100.000000	0.200000	0	0	37	0	1	0.098840	0
66	narrow9	0.200000	0.003755	0.950000	100.000000	0.200000	1	0	26	1	0	0.265890	0
67	narrow9	0.200000	0.001883	0.950000	100.000000	0.200000	1	1	25	0	0	0.200600	0
68	narrow9	0.200000	0.001883	0.950000	100.000000	0.200000	1	0	1	0	1	0.139770	0
69	narrow9	0.200000	0.007500	0.950000	100.000000	0.200000	1	1	15	1	1	0.086990	0
70	narrow9	0.200000	0.007500	0.950000	100.000000	0.200000	1	1	13	1	1	0.121370	0
71	narrow9	0.200000	0.001883	0.950000	100.000000	0.200000	0	1	16	1	1	0.147040	0
72	narrow9	0.200000	0.000010	0.950000	100.000000	0.200000	0	1	35	1	1	0.159350	0
73	narrow9	0.200000	0.001883	0.950000	100.000000	0.200000	1	1	10	1	1	0.217770	0
74	narrow9	0.200000	0.007500	0.950000	100.000000	0.200000	0	1	16	1	1	0.052260	0
75	narrow9	0.200000	0.003755	0.950000	100.000000	0.200000	0	1	30	1	1	0.087200	0
76	narrow9	0.200000	0.003755	0.950000	100.000000	0.200000	1	1	29	1	1	0.097850	0
77	narrow9	0.200000	0.000010	0.950000	100.000000	0.200000	0	0	4	1	0	0.273790	0
78	narrow9	0.200000	0.000010	0.950000	100.000000	0.200000	1	1	36	1	1	0.067120	0
79	narrow9	0.200000	0.005627	0.950000	100.000000	0.200000	0	1	30	1	1	0.195070	0
80	narrow9	0.200000	0.003755	0.950000	100.000000	0.200000	0	1	12	1	1	0.078400	0
81	narrow9	0.200000	0.001883	0.950000	100.000000	0.200000	0	1	27	1	1	0.181210	0
82	narrow9	0.200000	0.005627	0.950000	100.000000	0.200000	1	0	37	0	1	0.082370	0
83	narrow9	0.200000	0.003755	0.950000	100.000000	0.200000	0	0	25	0	1	0.091550	0
84	narrow9	0.200000	0.003755	0.950000	100.000000	0.200000	1	0	17	0	1	0.092550	0
85	narrow9	0.200000	0.003755	0.950000	100.000000	0.200000	0	0	6	0	1	0.087010	0
86	narrow9	0.200000	0.007500	0.950000	100.000000	0.200000	0	1	21	1	1	0.070150	0
87	narrow9	0.200000	0.007500	0.950000	100.000000	0.200000	1	1	23	1	1	0.053290	0
88	narrow9	0.200000	0.000010	0.950000	100.000000	0.200000	1	1	20	1	1	0.114030	0
89	narrow9	0.200000	0.007500	0.950000	100.000000	0.200000	1	1	8	1	1	0.034230	0
90	narrow9	0.200000	0.007500	0.950000	100.000000	0.200000	1	1	1	1	1	0.058390	0
91	narrow9	0.200000	0.000010	0.950000	100.000000	0.200000	1	0	20	0	1	0.165250	0
92	narrow9	0.200000	0.000010	0.950000	100.000000	0.200000	0	1	17	1	1	0.081860	0
93	narrow9	0.200000	0.007500	0.950000	100.000000	0.200000	0	1	17	1	1	0.108160	0
94	narrow9	0.200000	0.000010	0.950000	100.000000	0.200000	0	1	2	1	1	0.244360	0
95	narrow9	0.200000	0.000010	0.950000	100.000000	0.200000	0	0	8	1	0	0.080240	0
96	narrow9	0.200000	0.005627	0.950000	100.000000	0.200000	1	1	27	1	1	0.058120	0
97	narrow9	0.200000	0.001883	0.950000	100.000000	0.200000	0	1	15	1	1	0.161140	0
98	narrow9	0.200000	0.000010	0.950000	100.000000	0.200000	1	0	24	0	1	0.194120	0
99	narrow9	0.200000	0.003755	0.950000	100.000000	0.200000	1	0	30	0	1	0.151150	0
