trial	noise	noise_contrast	edge_contrast	edge_width	mean_lum	stim_time	rotID	transID	maskID	resp	correct	resptime	dropframes
0	white	0.200000	0.000010	0.048000	100.000000	0.200000	0	1	18	0	0	0.112930	0
1	white	0.200000	0.003757	0.048000	100.000000	0.200000	0	1	38	1	1	0.074710	0
2	white	0.200000	0.003757	0.048000	100.000000	0.200000	1	0	35	1	0	0.164550	0
3	white	0.200000	0.000010	0.048000	100.000000	0.200000	1	0	12	1	0	0.092480	0
4	white	0.200000	0.011252	0.048000	100.000000	0.200000	1	1	12	1	1	0.018420	0
5	white	0.200000	0.000010	0.048000	100.000000	0.200000	1	1	18	1	1	0.052930	0
6	white	0.200000	0.000010	0.048000	100.000000	0.200000	1	1	23	0	0	0.135420	0
7	white	0.200000	0.003757	0.048000	100.000000	0.200000	1	0	26	0	1	0.168410	0
8	white	0.200000	0.007505	0.048000	100.000000	0.200000	1	1	4	0	0	0.122480	0
9	white	0.200000	0.000010	0.048000	100.000000	0.200000	0	1	21	0	0	0.137630	0
10	white	0.200000	0.000010	0.048000	100.000000	0.200000	1	0	27	1	0	0.289280	0
11	white	0.200000	0.007505	0.048000	100.000000	0.200000	1	0	27	0	1	0.086570	0
12	white	0.200000	0.007505	0.048000	100.000000	0.200000	0	1	2	1	1	0.095500	0
13	white	0.200000	0.015000	0.048000	100.000000	0.200000	1	0	31	0	1	0.054800	0
14	white	0.200000	0.011252	0.048000	100.000000	0.200000	1	1	35	1	1	0.054240	0
15	white	0.200000	0.015000	0.048000	100.000000	0.200000	1	0	17	0	1	0.038650	0
16	white	0.200000	0.015000	0.048000	100.000000	0.200000	0	0	26	0	1	0.086690	0
17	white	0.200000	0.011252	0.048000	100.000000	0.200000	1	0	21	0	1	0.042940	0
18	white	0.200000	0.015000	0.048000	100.000000	0.200000	1	1	25	1	1	0.029890	0
19	white	0.200000	0.000010	0.048000	100.000000	0.200000	0	1	31	1	1	0.065450	0
20	white	0.200000	0.003757	0.048000	100.000000	0.200000	0	1	13	1	1	0.091620	0
21	white	0.200000	0.000010	0.048000	100.000000	0.200000	1	0	2	0	1	0.091730	0
22	white	0.200000	0.003757	0.048000	100.000000	0.200000	1	1	17	1	1	0.159490	0
23	white	0.200000	0.003757	0.048000	100.000000	0.200000	0	1	35	1	1	0.081030	0
24	white	0.200000	0.015000	0.048000	100.000000	0.200000	1	0	4	0	1	0.032890	0
25	white	0.200000	0.007505	0.048000	100.000000	0.200000	0	0	39	0	1	0.078150	0
26	white	0.200000	0.007505	0.048000	100.000000	0.200000	0	0	3	0	1	0.069040	0
27	white	0.200000	0.015000	0.048000	100.000000	0.200000	0	0	18	0	1	0.019650	0
28	white	0.200000	0.003757	0.048000	100.000000	0.200000	1	0	17	0	1	0.075980	0
29	white	0.200000	0.003757	0.048000	100.000000	0.200000	0	1	34	0	0	0.079660	0
30	white	0.200000	0.007505	0.048000	100.000000	0.200000	1	0	32	0	1	0.067010	0
31	white	0.200000	0.011252	0.048000	100.000000	0.200000	0	1	34	1	1	0.074150	0
32	white	0.200000	0.007505	0.048000	100.000000	0.200000	0	1	21	1	1	0.169370	0
33	white	0.200000	0.015000	0.048000	100.000000	0.200000	1	1	14	1	1	0.066100	0
34	white	0.200000	0.003757	0.048000	100.000000	0.200000	0	0	39	1	0	0.197700	0
35	white	0.200000	0.000010	0.048000	100.000000	0.200000	0	0	38	0	1	0.094360	0
36	white	0.200000	0.011252	0.048000	100.000000	0.200000	1	1	39	1	1	0.017840	0
37	white	0.200000	0.000010	0.048000	100.000000	0.200000	0	0	18	1	0	0.015740	0
38	white	0.200000	0.007505	0.048000	100.000000	0.200000	0	0	2	0	1	0.662730	0
39	white	0.200000	0.007505	0.048000	100.000000	0.200000	1	0	35	1	0	0.181200	0
40	white	0.200000	0.000010	0.048000	100.000000	0.200000	1	0	31	0	1	0.068250	0
41	white	0.200000	0.007505	0.048000	100.000000	0.200000	0	1	35	0	0	0.103350	0
42	white	0.200000	0.011252	0.048000	100.000000	0.200000	0	0	26	0	1	0.055300	0
43	white	0.200000	0.007505	0.048000	100.000000	0.200000	1	1	39	1	1	0.077800	0
44	white	0.200000	0.015000	0.048000	100.000000	0.200000	1	1	16	1	1	0.030350	0
45	white	0.200000	0.007505	0.048000	100.000000	0.200000	0	0	10	0	1	0.025500	0
46	white	0.200000	0.007505	0.048000	100.000000	0.200000	0	0	20	0	1	0.174710	0
47	white	0.200000	0.003757	0.048000	100.000000	0.200000	1	0	15	1	0	0.147970	0
48	white	0.200000	0.000010	0.048000	100.000000	0.200000	1	0	8	0	1	0.041370	0
49	white	0.200000	0.015000	0.048000	100.000000	0.200000	1	1	38	1	1	0.006790	0
50	white	0.200000	0.015000	0.048000	100.000000	0.200000	1	1	10	1	1	0.027430	0
51	white	0.200000	0.011252	0.048000	100.000000	0.200000	1	1	35	1	1	0.042450	0
52	white	0.200000	0.003757	0.048000	100.000000	0.200000	0	1	27	1	1	0.059730	0
53	white	0.200000	0.015000	0.048000	100.000000	0.200000	0	1	28	1	1	0.081880	0
54	white	0.200000	0.011252	0.048000	100.000000	0.200000	1	1	25	1	1	0.078230	0
55	white	0.200000	0.003757	0.048000	100.000000	0.200000	1	0	20	1	0	0.061770	0
56	white	0.200000	0.011252	0.048000	100.000000	0.200000	0	0	35	0	1	0.110030	0
57	white	0.200000	0.003757	0.048000	100.000000	0.200000	1	1	30	1	1	0.165880	0
58	white	0.200000	0.007505	0.048000	100.000000	0.200000	1	1	25	1	1	0.028680	0
59	white	0.200000	0.007505	0.048000	100.000000	0.200000	0	0	3	0	1	0.061330	0
60	white	0.200000	0.007505	0.048000	100.000000	0.200000	1	0	10	1	0	0.026520	0
61	white	0.200000	0.000010	0.048000	100.000000	0.200000	1	1	1	0	0	0.051380	0
62	white	0.200000	0.015000	0.048000	100.000000	0.200000	1	1	23	1	1	1.173860	0
63	white	0.200000	0.003757	0.048000	100.000000	0.200000	1	1	15	0	0	0.104600	0
64	white	0.200000	0.015000	0.048000	100.000000	0.200000	0	1	8	1	1	0.035720	0
65	white	0.200000	0.015000	0.048000	100.000000	0.200000	0	1	25	1	1	0.883050	0
66	white	0.200000	0.015000	0.048000	100.000000	0.200000	1	0	32	0	1	0.034400	0
67	white	0.200000	0.003757	0.048000	100.000000	0.200000	1	1	18	1	1	0.107540	0
68	white	0.200000	0.003757	0.048000	100.000000	0.200000	0	1	20	0	0	0.049390	0
69	white	0.200000	0.007505	0.048000	100.000000	0.200000	0	1	34	1	1	0.067800	0
70	white	0.200000	0.003757	0.048000	100.000000	0.200000	1	1	15	0	0	0.155110	0
71	white	0.200000	0.011252	0.048000	100.000000	0.200000	0	1	31	1	1	0.087830	0
72	white	0.200000	0.000010	0.048000	100.000000	0.200000	0	0	19	1	0	0.131770	0
73	white	0.200000	0.011252	0.048000	100.000000	0.200000	1	0	37	0	1	0.056470	0
74	white	0.200000	0.000010	0.048000	100.000000	0.200000	1	0	27	1	0	0.046370	0
75	white	0.200000	0.003757	0.048000	100.000000	0.200000	1	0	9	1	0	0.123120	0
76	white	0.200000	0.000010	0.048000	100.000000	0.200000	0	1	37	1	1	0.083040	0
77	white	0.200000	0.000010	0.048000	100.000000	0.200000	0	1	20	1	1	0.046950	0
78	white	0.200000	0.015000	0.048000	100.000000	0.200000	0	0	19	0	1	0.037150	0
79	white	0.200000	0.015000	0.048000	100.000000	0.200000	1	0	4	0	1	0.000790	0
80	white	0.200000	0.011252	0.048000	100.000000	0.200000	0	0	2	0	1	0.889400	0
81	white	0.200000	0.011252	0.048000	100.000000	0.200000	0	1	29	1	1	0.074060	0
82	white	0.200000	0.011252	0.048000	100.000000	0.200000	0	0	28	1	0	0.157330	0
83	white	0.200000	0.007505	0.048000	100.000000	0.200000	1	1	36	1	1	0.173070	0
84	white	0.200000	0.015000	0.048000	100.000000	0.200000	1	0	4	0	1	0.038740	0
85	white	0.200000	0.015000	0.048000	100.000000	0.200000	0	0	29	0	1	0.063780	0
86	white	0.200000	0.011252	0.048000	100.000000	0.200000	0	0	15	0	1	0.067130	0
87	white	0.200000	0.011252	0.048000	100.000000	0.200000	1	0	7	0	1	0.090140	0
88	white	0.200000	0.011252	0.048000	100.000000	0.200000	0	0	31	0	1	0.035890	0
89	white	0.200000	0.011252	0.048000	100.000000	0.200000	1	1	33	1	1	0.095790	0
90	white	0.200000	0.000010	0.048000	100.000000	0.200000	0	0	31	1	0	0.265880	0
91	white	0.200000	0.003757	0.048000	100.000000	0.200000	1	0	9	0	1	0.309570	0
92	white	0.200000	0.007505	0.048000	100.000000	0.200000	0	1	20	1	1	0.204730	0
93	white	0.200000	0.011252	0.048000	100.000000	0.200000	0	1	20	1	1	0.189020	0
94	white	0.200000	0.000010	0.048000	100.000000	0.200000	0	1	9	0	0	0.169400	0
95	white	0.200000	0.000010	0.048000	100.000000	0.200000	0	0	13	1	0	0.236660	0
96	white	0.200000	0.003757	0.048000	100.000000	0.200000	1	0	27	1	0	0.111240	0
97	white	0.200000	0.011252	0.048000	100.000000	0.200000	1	1	17	1	1	0.061240	0
98	white	0.200000	0.007505	0.048000	100.000000	0.200000	1	1	23	1	1	0.143040	0
99	white	0.200000	0.015000	0.048000	100.000000	0.200000	0	1	13	1	1	0.053610	0
