trial	noise	noise_contrast	edge_contrast	edge_width	mean_lum	stim_time	rotID	transID	maskID	resp	correct	resptime	dropframes
0	white	0.200000	0.012500	0.150000	100.000000	0.200000	1	1	29	1	1	0.042050	0
1	white	0.200000	0.012500	0.150000	100.000000	0.200000	0	0	30	0	1	0.038270	0
2	white	0.200000	0.003133	0.150000	100.000000	0.200000	1	1	13	1	1	0.335210	0
3	white	0.200000	0.009378	0.150000	100.000000	0.200000	1	1	31	1	1	0.080570	0
4	white	0.200000	0.003133	0.150000	100.000000	0.200000	0	0	26	0	1	0.080310	0
5	white	0.200000	0.009378	0.150000	100.000000	0.200000	0	0	27	0	1	0.089350	0
6	white	0.200000	0.000010	0.150000	100.000000	0.200000	1	0	28	1	0	0.105190	0
7	white	0.200000	0.006255	0.150000	100.000000	0.200000	1	0	12	0	1	0.034080	0
8	white	0.200000	0.003133	0.150000	100.000000	0.200000	0	1	25	1	1	0.021630	0
9	white	0.200000	0.009378	0.150000	100.000000	0.200000	0	0	8	0	1	0.034770	0
10	white	0.200000	0.012500	0.150000	100.000000	0.200000	1	1	34	1	1	0.006960	0
11	white	0.200000	0.003133	0.150000	100.000000	0.200000	0	1	10	1	1	0.043190	0
12	white	0.200000	0.006255	0.150000	100.000000	0.200000	1	0	14	0	1	0.018760	0
13	white	0.200000	0.012500	0.150000	100.000000	0.200000	1	1	24	1	1	0.876200	0
14	white	0.200000	0.003133	0.150000	100.000000	0.200000	0	1	24	0	0	0.202820	0
15	white	0.200000	0.012500	0.150000	100.000000	0.200000	0	0	30	0	1	0.005270	0
16	white	0.200000	0.006255	0.150000	100.000000	0.200000	0	1	5	1	1	0.018930	0
17	white	0.200000	0.003133	0.150000	100.000000	0.200000	0	0	29	0	1	1.283540	0
18	white	0.200000	0.003133	0.150000	100.000000	0.200000	0	0	32	0	1	0.169960	0
19	white	0.200000	0.009378	0.150000	100.000000	0.200000	1	0	21	0	1	0.089190	0
20	white	0.200000	0.000010	0.150000	100.000000	0.200000	0	0	38	0	1	0.232690	0
21	white	0.200000	0.006255	0.150000	100.000000	0.200000	1	0	14	0	1	0.168370	0
22	white	0.200000	0.006255	0.150000	100.000000	0.200000	0	0	23	0	1	0.164150	0
23	white	0.200000	0.000010	0.150000	100.000000	0.200000	1	1	7	1	1	0.332190	0
24	white	0.200000	0.000010	0.150000	100.000000	0.200000	0	1	26	1	1	0.207710	0
25	white	0.200000	0.003133	0.150000	100.000000	0.200000	1	1	6	0	0	0.140040	0
26	white	0.200000	0.006255	0.150000	100.000000	0.200000	0	1	15	0	0	0.272560	0
27	white	0.200000	0.009378	0.150000	100.000000	0.200000	1	0	32	0	1	0.232430	0
28	white	0.200000	0.012500	0.150000	100.000000	0.200000	1	0	10	0	1	0.152390	0
29	white	0.200000	0.003133	0.150000	100.000000	0.200000	1	0	5	0	1	0.168020	0
30	white	0.200000	0.006255	0.150000	100.000000	0.200000	1	1	19	0	0	0.159420	0
31	white	0.200000	0.000010	0.150000	100.000000	0.200000	1	0	35	1	0	0.219930	0
32	white	0.200000	0.003133	0.150000	100.000000	0.200000	1	1	31	0	0	0.102050	0
33	white	0.200000	0.006255	0.150000	100.000000	0.200000	0	0	2	0	1	0.188990	0
34	white	0.200000	0.003133	0.150000	100.000000	0.200000	0	1	39	0	0	0.240000	0
35	white	0.200000	0.006255	0.150000	100.000000	0.200000	0	1	29	1	1	0.077760	0
36	white	0.200000	0.009378	0.150000	100.000000	0.200000	0	0	23	0	1	0.111420	0
37	white	0.200000	0.000010	0.150000	100.000000	0.200000	0	1	27	0	0	0.225080	0
38	white	0.200000	0.006255	0.150000	100.000000	0.200000	1	0	16	0	1	0.214360	0
39	white	0.200000	0.009378	0.150000	100.000000	0.200000	1	1	25	1	1	0.064170	0
40	white	0.200000	0.003133	0.150000	100.000000	0.200000	0	1	10	1	1	0.080870	0
41	white	0.200000	0.009378	0.150000	100.000000	0.200000	1	1	1	1	1	0.088970	0
42	white	0.200000	0.006255	0.150000	100.000000	0.200000	0	1	35	0	0	0.106750	0
43	white	0.200000	0.006255	0.150000	100.000000	0.200000	0	1	25	0	0	0.135740	0
44	white	0.200000	0.006255	0.150000	100.000000	0.200000	0	1	39	1	1	0.088890	0
45	white	0.200000	0.000010	0.150000	100.000000	0.200000	1	0	21	0	1	0.196320	0
46	white	0.200000	0.000010	0.150000	100.000000	0.200000	1	1	17	0	0	0.429470	0
47	white	0.200000	0.012500	0.150000	100.000000	0.200000	1	1	39	1	1	0.030620	0
48	white	0.200000	0.006255	0.150000	100.000000	0.200000	0	0	3	0	1	0.501590	0
49	white	0.200000	0.012500	0.150000	100.000000	0.200000	0	1	25	1	1	0.017140	0
50	white	0.200000	0.003133	0.150000	100.000000	0.200000	1	1	7	1	1	0.179290	0
51	white	0.200000	0.006255	0.150000	100.000000	0.200000	0	0	26	0	1	0.031310	0
52	white	0.200000	0.009378	0.150000	100.000000	0.200000	1	1	15	1	1	0.075720	0
53	white	0.200000	0.012500	0.150000	100.000000	0.200000	1	1	10	1	1	0.017970	0
54	white	0.200000	0.012500	0.150000	100.000000	0.200000	0	0	0	0	1	0.031750	0
55	white	0.200000	0.012500	0.150000	100.000000	0.200000	0	0	25	0	1	0.036810	0
56	white	0.200000	0.000010	0.150000	100.000000	0.200000	1	1	9	1	1	0.029170	0
57	white	0.200000	0.012500	0.150000	100.000000	0.200000	0	0	32	0	1	0.046700	0
58	white	0.200000	0.000010	0.150000	100.000000	0.200000	0	1	9	0	0	0.197160	0
59	white	0.200000	0.009378	0.150000	100.000000	0.200000	1	0	8	0	1	0.140660	0
60	white	0.200000	0.000010	0.150000	100.000000	0.200000	0	1	38	0	0	0.149380	0
61	white	0.200000	0.009378	0.150000	100.000000	0.200000	1	1	35	1	1	0.095970	0
62	white	0.200000	0.003133	0.150000	100.000000	0.200000	0	1	22	1	1	0.179270	0
63	white	0.200000	0.000010	0.150000	100.000000	0.200000	0	0	19	1	0	0.135690	0
64	white	0.200000	0.009378	0.150000	100.000000	0.200000	0	0	6	0	1	0.076100	0
65	white	0.200000	0.000010	0.150000	100.000000	0.200000	1	1	30	1	1	0.800270	0
66	white	0.200000	0.009378	0.150000	100.000000	0.200000	0	0	19	0	1	0.055040	0
67	white	0.200000	0.000010	0.150000	100.000000	0.200000	0	0	1	1	0	0.267900	0
68	white	0.200000	0.000010	0.150000	100.000000	0.200000	1	0	7	1	0	0.407840	0
69	white	0.200000	0.012500	0.150000	100.000000	0.200000	1	0	23	0	1	1.387080	0
70	white	0.200000	0.003133	0.150000	100.000000	0.200000	0	1	7	1	1	0.142170	0
71	white	0.200000	0.012500	0.150000	100.000000	0.200000	0	1	5	1	1	0.048040	0
72	white	0.200000	0.000010	0.150000	100.000000	0.200000	1	0	32	0	1	0.175730	0
73	white	0.200000	0.000010	0.150000	100.000000	0.200000	1	1	29	0	0	0.217540	0
74	white	0.200000	0.012500	0.150000	100.000000	0.200000	1	1	28	1	1	0.106270	0
75	white	0.200000	0.006255	0.150000	100.000000	0.200000	0	0	25	0	1	0.138980	0
76	white	0.200000	0.003133	0.150000	100.000000	0.200000	0	1	8	1	1	0.688480	0
77	white	0.200000	0.009378	0.150000	100.000000	0.200000	0	0	0	0	1	0.065900	0
78	white	0.200000	0.009378	0.150000	100.000000	0.200000	0	1	13	1	1	0.061840	0
79	white	0.200000	0.009378	0.150000	100.000000	0.200000	0	0	25	0	1	0.059500	0
80	white	0.200000	0.006255	0.150000	100.000000	0.200000	0	0	28	0	1	0.169300	0
81	white	0.200000	0.006255	0.150000	100.000000	0.200000	0	1	38	1	1	0.082050	0
82	white	0.200000	0.003133	0.150000	100.000000	0.200000	1	0	14	0	1	0.133950	0
83	white	0.200000	0.009378	0.150000	100.000000	0.200000	1	0	33	0	1	0.080530	0
84	white	0.200000	0.003133	0.150000	100.000000	0.200000	0	1	8	1	1	0.266980	0
85	white	0.200000	0.009378	0.150000	100.000000	0.200000	1	1	13	1	1	0.130270	0
86	white	0.200000	0.000010	0.150000	100.000000	0.200000	0	1	17	1	1	0.431250	0
87	white	0.200000	0.006255	0.150000	100.000000	0.200000	0	0	25	0	1	0.082950	0
88	white	0.200000	0.000010	0.150000	100.000000	0.200000	1	0	21	0	1	0.196380	0
89	white	0.200000	0.009378	0.150000	100.000000	0.200000	1	1	16	1	1	0.040650	0
90	white	0.200000	0.000010	0.150000	100.000000	0.200000	0	0	31	1	0	0.151080	0
91	white	0.200000	0.003133	0.150000	100.000000	0.200000	1	1	15	0	0	0.186660	0
92	white	0.200000	0.003133	0.150000	100.000000	0.200000	0	1	39	0	0	0.185450	0
93	white	0.200000	0.009378	0.150000	100.000000	0.200000	1	0	35	0	1	0.066470	0
94	white	0.200000	0.006255	0.150000	100.000000	0.200000	1	1	29	1	1	0.064910	0
95	white	0.200000	0.012500	0.150000	100.000000	0.200000	0	1	1	1	1	0.058760	0
96	white	0.200000	0.012500	0.150000	100.000000	0.200000	1	1	33	1	1	0.042780	0
97	white	0.200000	0.012500	0.150000	100.000000	0.200000	0	1	32	1	1	0.035880	0
98	white	0.200000	0.012500	0.150000	100.000000	0.200000	1	0	32	0	1	0.022680	0
99	white	0.200000	0.012500	0.150000	100.000000	0.200000	1	1	9	1	1	0.027980	0
