trial	noise	noise_contrast	edge_contrast	edge_width	mean_lum	stim_time	rotID	transID	maskID	resp	correct	resptime	dropframes
0	white	0.200000	0.006255	0.150000	100.000000	0.200000	1	0	27	1	0	0.408990	0
1	white	0.200000	0.003133	0.150000	100.000000	0.200000	1	1	38	1	1	0.452760	1
2	white	0.200000	0.009378	0.150000	100.000000	0.200000	1	0	23	0	1	0.352260	0
3	white	0.200000	0.003133	0.150000	100.000000	0.200000	1	0	5	1	0	0.283150	0
4	white	0.200000	0.009378	0.150000	100.000000	0.200000	0	0	34	0	1	0.462910	0
5	white	0.200000	0.009378	0.150000	100.000000	0.200000	0	0	10	0	1	0.391900	0
6	white	0.200000	0.012500	0.150000	100.000000	0.200000	1	1	37	1	1	0.242320	0
7	white	0.200000	0.012500	0.150000	100.000000	0.200000	0	0	9	0	1	0.310630	0
8	white	0.200000	0.009378	0.150000	100.000000	0.200000	0	1	36	1	1	0.204470	0
9	white	0.200000	0.000010	0.150000	100.000000	0.200000	1	0	12	0	1	0.751770	0
10	white	0.200000	0.000010	0.150000	100.000000	0.200000	1	0	27	1	0	0.408780	0
11	white	0.200000	0.012500	0.150000	100.000000	0.200000	1	1	12	1	1	0.257600	0
12	white	0.200000	0.000010	0.150000	100.000000	0.200000	0	0	23	0	1	0.245710	0
13	white	0.200000	0.009378	0.150000	100.000000	0.200000	0	0	35	0	1	0.338700	0
14	white	0.200000	0.003133	0.150000	100.000000	0.200000	0	0	27	0	1	0.598830	0
15	white	0.200000	0.009378	0.150000	100.000000	0.200000	1	1	9	1	1	0.403140	0
16	white	0.200000	0.006255	0.150000	100.000000	0.200000	1	0	38	0	1	0.616120	0
17	white	0.200000	0.003133	0.150000	100.000000	0.200000	0	0	21	1	0	0.661940	0
18	white	0.200000	0.006255	0.150000	100.000000	0.200000	0	1	14	1	1	0.291210	0
19	white	0.200000	0.000010	0.150000	100.000000	0.200000	0	0	4	0	1	0.584300	0
20	white	0.200000	0.006255	0.150000	100.000000	0.200000	1	1	28	1	1	0.471000	0
21	white	0.200000	0.012500	0.150000	100.000000	0.200000	0	0	13	0	1	0.403850	0
22	white	0.200000	0.003133	0.150000	100.000000	0.200000	1	0	13	1	0	0.450000	0
23	white	0.200000	0.000010	0.150000	100.000000	0.200000	0	1	24	1	1	0.333270	0
24	white	0.200000	0.000010	0.150000	100.000000	0.200000	1	0	5	0	1	0.399650	0
25	white	0.200000	0.006255	0.150000	100.000000	0.200000	0	0	24	0	1	0.518490	0
26	white	0.200000	0.006255	0.150000	100.000000	0.200000	0	1	36	1	1	0.333310	0
27	white	0.200000	0.006255	0.150000	100.000000	0.200000	1	1	23	1	1	0.276820	0
28	white	0.200000	0.012500	0.150000	100.000000	0.200000	0	1	35	1	1	0.627060	0
29	white	0.200000	0.009378	0.150000	100.000000	0.200000	0	0	2	0	1	0.394440	0
30	white	0.200000	0.000010	0.150000	100.000000	0.200000	1	1	35	1	1	0.556360	0
31	white	0.200000	0.009378	0.150000	100.000000	0.200000	1	1	7	1	1	0.371840	0
32	white	0.200000	0.009378	0.150000	100.000000	0.200000	1	1	1	1	1	0.442970	0
33	white	0.200000	0.009378	0.150000	100.000000	0.200000	1	1	18	1	1	0.610340	0
34	white	0.200000	0.003133	0.150000	100.000000	0.200000	0	1	0	0	0	0.389540	0
35	white	0.200000	0.009378	0.150000	100.000000	0.200000	1	1	34	1	1	0.213630	0
36	white	0.200000	0.006255	0.150000	100.000000	0.200000	1	0	0	0	1	0.393970	0
37	white	0.200000	0.006255	0.150000	100.000000	0.200000	1	1	30	1	1	0.451490	0
38	white	0.200000	0.000010	0.150000	100.000000	0.200000	0	0	2	1	0	0.577400	0
39	white	0.200000	0.009378	0.150000	100.000000	0.200000	1	1	17	1	1	0.243940	0
40	white	0.200000	0.012500	0.150000	100.000000	0.200000	0	1	31	1	1	0.373740	0
41	white	0.200000	0.000010	0.150000	100.000000	0.200000	0	1	38	0	0	0.792740	0
42	white	0.200000	0.006255	0.150000	100.000000	0.200000	0	0	4	0	1	0.311580	0
43	white	0.200000	0.000010	0.150000	100.000000	0.200000	1	1	4	0	0	0.391430	0
44	white	0.200000	0.003133	0.150000	100.000000	0.200000	0	1	20	1	1	0.754140	0
45	white	0.200000	0.003133	0.150000	100.000000	0.200000	1	0	28	1	0	0.500220	0
46	white	0.200000	0.006255	0.150000	100.000000	0.200000	1	0	1	0	1	0.304020	0
47	white	0.200000	0.006255	0.150000	100.000000	0.200000	1	1	31	1	1	0.181060	0
48	white	0.200000	0.006255	0.150000	100.000000	0.200000	1	0	11	0	1	0.432160	0
49	white	0.200000	0.003133	0.150000	100.000000	0.200000	1	0	17	0	1	0.533120	0
50	white	0.200000	0.012500	0.150000	100.000000	0.200000	1	1	13	1	1	0.303790	0
51	white	0.200000	0.009378	0.150000	100.000000	0.200000	0	0	26	0	1	0.470510	0
52	white	0.200000	0.012500	0.150000	100.000000	0.200000	1	1	5	1	1	0.355350	0
53	white	0.200000	0.003133	0.150000	100.000000	0.200000	0	1	16	0	0	0.991460	0
54	white	0.200000	0.012500	0.150000	100.000000	0.200000	1	0	30	0	1	0.765800	0
55	white	0.200000	0.000010	0.150000	100.000000	0.200000	0	0	30	1	0	0.523550	0
56	white	0.200000	0.000010	0.150000	100.000000	0.200000	0	1	8	1	1	0.730780	0
57	white	0.200000	0.000010	0.150000	100.000000	0.200000	0	0	12	0	1	1.195760	0
58	white	0.200000	0.009378	0.150000	100.000000	0.200000	0	0	14	0	1	0.449500	0
59	white	0.200000	0.003133	0.150000	100.000000	0.200000	0	0	11	0	1	0.894600	0
60	white	0.200000	0.009378	0.150000	100.000000	0.200000	1	0	24	0	1	0.661660	0
61	white	0.200000	0.003133	0.150000	100.000000	0.200000	0	0	8	1	0	0.773220	0
62	white	0.200000	0.012500	0.150000	100.000000	0.200000	1	0	15	0	1	0.445890	0
63	white	0.200000	0.012500	0.150000	100.000000	0.200000	0	0	31	0	1	0.274590	0
64	white	0.200000	0.006255	0.150000	100.000000	0.200000	1	1	11	1	1	1.136920	0
65	white	0.200000	0.012500	0.150000	100.000000	0.200000	1	1	30	1	1	0.279750	0
66	white	0.200000	0.003133	0.150000	100.000000	0.200000	0	1	13	0	0	0.718830	0
67	white	0.200000	0.012500	0.150000	100.000000	0.200000	1	1	21	1	1	0.271620	0
68	white	0.200000	0.012500	0.150000	100.000000	0.200000	1	0	28	0	1	0.371120	0
69	white	0.200000	0.012500	0.150000	100.000000	0.200000	0	0	33	0	1	0.525600	0
70	white	0.200000	0.006255	0.150000	100.000000	0.200000	1	0	0	0	1	0.415800	0
71	white	0.200000	0.006255	0.150000	100.000000	0.200000	0	1	35	1	1	0.514130	0
72	white	0.200000	0.003133	0.150000	100.000000	0.200000	0	0	12	0	1	0.692590	0
73	white	0.200000	0.000010	0.150000	100.000000	0.200000	0	0	33	0	1	1.011250	0
74	white	0.200000	0.012500	0.150000	100.000000	0.200000	0	1	30	1	1	0.346400	0
75	white	0.200000	0.006255	0.150000	100.000000	0.200000	0	1	25	1	1	0.476240	0
76	white	0.200000	0.012500	0.150000	100.000000	0.200000	0	0	3	0	1	0.412780	0
77	white	0.200000	0.000010	0.150000	100.000000	0.200000	0	0	38	0	1	0.881700	0
78	white	0.200000	0.003133	0.150000	100.000000	0.200000	0	0	3	1	0	0.514710	0
79	white	0.200000	0.003133	0.150000	100.000000	0.200000	0	0	1	0	1	0.545090	0
80	white	0.200000	0.000010	0.150000	100.000000	0.200000	0	0	4	0	1	0.827730	0
81	white	0.200000	0.000010	0.150000	100.000000	0.200000	0	1	3	0	0	0.886960	0
82	white	0.200000	0.000010	0.150000	100.000000	0.200000	0	0	5	0	1	0.714450	0
83	white	0.200000	0.012500	0.150000	100.000000	0.200000	0	0	37	0	1	0.374170	0
84	white	0.200000	0.009378	0.150000	100.000000	0.200000	1	1	21	1	1	0.389740	0
85	white	0.200000	0.012500	0.150000	100.000000	0.200000	1	1	31	1	1	0.229960	0
86	white	0.200000	0.009378	0.150000	100.000000	0.200000	0	1	8	1	1	0.308130	0
87	white	0.200000	0.003133	0.150000	100.000000	0.200000	0	1	7	1	1	0.508660	0
88	white	0.200000	0.000010	0.150000	100.000000	0.200000	0	0	39	0	1	0.333940	0
89	white	0.200000	0.006255	0.150000	100.000000	0.200000	0	1	35	1	1	0.399600	0
90	white	0.200000	0.006255	0.150000	100.000000	0.200000	0	1	31	1	1	0.545490	0
91	white	0.200000	0.006255	0.150000	100.000000	0.200000	1	1	19	0	0	2.439980	0
92	white	0.200000	0.009378	0.150000	100.000000	0.200000	0	1	19	1	1	0.205910	0
93	white	0.200000	0.009378	0.150000	100.000000	0.200000	1	0	11	0	1	0.441040	0
94	white	0.200000	0.003133	0.150000	100.000000	0.200000	0	1	32	1	1	0.795060	0
95	white	0.200000	0.009378	0.150000	100.000000	0.200000	1	1	22	1	1	0.697050	0
96	white	0.200000	0.012500	0.150000	100.000000	0.200000	1	0	37	0	1	0.445250	0
97	white	0.200000	0.003133	0.150000	100.000000	0.200000	1	0	6	0	1	0.958610	0
98	white	0.200000	0.000010	0.150000	100.000000	0.200000	1	0	24	0	1	1.088160	0
99	white	0.200000	0.003133	0.150000	100.000000	0.200000	1	0	15	0	1	0.803440	0
