trial	noise	noise_contrast	edge_contrast	edge_width	mean_lum	stim_time	rotID	transID	maskID	resp	correct	resptime	dropframes
0	narrow0.5	0.200000	0.001258	0.048000	100.000000	0.200000	0	1	7	0	0	0.580820	0
1	narrow0.5	0.200000	0.003753	0.048000	100.000000	0.200000	1	1	8	1	1	0.435740	0
2	narrow0.5	0.200000	0.001258	0.048000	100.000000	0.200000	0	0	15	1	0	1.206300	0
3	narrow0.5	0.200000	0.002505	0.048000	100.000000	0.200000	0	1	21	0	0	1.076290	0
4	narrow0.5	0.200000	0.005000	0.048000	100.000000	0.200000	0	0	7	0	1	0.329930	0
5	narrow0.5	0.200000	0.005000	0.048000	100.000000	0.200000	1	1	32	1	1	0.368600	0
6	narrow0.5	0.200000	0.002505	0.048000	100.000000	0.200000	0	0	35	0	1	0.358980	0
7	narrow0.5	0.200000	0.002505	0.048000	100.000000	0.200000	0	0	10	1	0	0.510140	0
8	narrow0.5	0.200000	0.002505	0.048000	100.000000	0.200000	1	0	6	0	1	1.083690	0
9	narrow0.5	0.200000	0.003753	0.048000	100.000000	0.200000	0	1	37	0	0	0.812720	0
10	narrow0.5	0.200000	0.005000	0.048000	100.000000	0.200000	0	0	8	0	1	0.727050	0
11	narrow0.5	0.200000	0.003753	0.048000	100.000000	0.200000	0	1	33	0	0	0.595340	0
12	narrow0.5	0.200000	0.005000	0.048000	100.000000	0.200000	0	0	36	0	1	0.589100	0
13	narrow0.5	0.200000	0.002505	0.048000	100.000000	0.200000	0	1	25	1	1	0.455100	0
14	narrow0.5	0.200000	0.003753	0.048000	100.000000	0.200000	1	1	24	1	1	0.671710	0
15	narrow0.5	0.200000	0.003753	0.048000	100.000000	0.200000	1	0	17	0	1	0.390470	0
16	narrow0.5	0.200000	0.005000	0.048000	100.000000	0.200000	1	1	2	1	1	0.411490	0
17	narrow0.5	0.200000	0.005000	0.048000	100.000000	0.200000	0	1	17	1	1	0.297840	0
18	narrow0.5	0.200000	0.005000	0.048000	100.000000	0.200000	1	1	5	1	1	0.148470	0
19	narrow0.5	0.200000	0.005000	0.048000	100.000000	0.200000	0	0	2	0	1	0.449440	0
20	narrow0.5	0.200000	0.003753	0.048000	100.000000	0.200000	0	1	2	1	1	0.254580	0
21	narrow0.5	0.200000	0.000010	0.048000	100.000000	0.200000	1	0	21	0	1	1.306760	0
22	narrow0.5	0.200000	0.000010	0.048000	100.000000	0.200000	1	1	6	1	1	1.941900	0
23	narrow0.5	0.200000	0.000010	0.048000	100.000000	0.200000	0	1	4	1	1	1.252930	0
24	narrow0.5	0.200000	0.001258	0.048000	100.000000	0.200000	1	1	12	1	1	1.091350	0
25	narrow0.5	0.200000	0.001258	0.048000	100.000000	0.200000	1	0	20	0	1	0.604080	0
26	narrow0.5	0.200000	0.000010	0.048000	100.000000	0.200000	0	0	2	1	0	0.614500	0
27	narrow0.5	0.200000	0.000010	0.048000	100.000000	0.200000	0	0	24	0	1	0.985140	0
28	narrow0.5	0.200000	0.002505	0.048000	100.000000	0.200000	1	1	17	1	1	0.543840	0
29	narrow0.5	0.200000	0.000010	0.048000	100.000000	0.200000	0	0	1	1	0	0.724360	0
30	narrow0.5	0.200000	0.001258	0.048000	100.000000	0.200000	1	0	39	1	0	1.753870	0
31	narrow0.5	0.200000	0.002505	0.048000	100.000000	0.200000	0	1	16	1	1	1.356420	0
32	narrow0.5	0.200000	0.000010	0.048000	100.000000	0.200000	0	1	34	1	1	1.687630	0
33	narrow0.5	0.200000	0.005000	0.048000	100.000000	0.200000	0	0	36	0	1	0.443470	0
34	narrow0.5	0.200000	0.000010	0.048000	100.000000	0.200000	1	1	27	0	0	1.115850	0
35	narrow0.5	0.200000	0.002505	0.048000	100.000000	0.200000	0	0	35	0	1	1.183130	0
36	narrow0.5	0.200000	0.000010	0.048000	100.000000	0.200000	1	1	20	1	1	0.660320	0
37	narrow0.5	0.200000	0.005000	0.048000	100.000000	0.200000	1	0	13	0	1	0.768790	0
38	narrow0.5	0.200000	0.000010	0.048000	100.000000	0.200000	0	0	13	0	1	1.058950	0
39	narrow0.5	0.200000	0.000010	0.048000	100.000000	0.200000	1	0	22	1	0	0.675660	0
40	narrow0.5	0.200000	0.000010	0.048000	100.000000	0.200000	0	1	3	0	0	0.939460	0
41	narrow0.5	0.200000	0.003753	0.048000	100.000000	0.200000	0	0	16	0	1	0.483300	0
42	narrow0.5	0.200000	0.005000	0.048000	100.000000	0.200000	1	1	37	1	1	0.297960	0
43	narrow0.5	0.200000	0.001258	0.048000	100.000000	0.200000	1	1	35	1	1	1.393640	0
44	narrow0.5	0.200000	0.000010	0.048000	100.000000	0.200000	0	1	13	1	1	0.774970	0
45	narrow0.5	0.200000	0.005000	0.048000	100.000000	0.200000	1	0	23	0	1	0.988530	0
46	narrow0.5	0.200000	0.005000	0.048000	100.000000	0.200000	1	0	35	0	1	0.411240	0
47	narrow0.5	0.200000	0.000010	0.048000	100.000000	0.200000	1	0	38	1	0	1.142060	0
48	narrow0.5	0.200000	0.001258	0.048000	100.000000	0.200000	0	0	34	0	1	0.892320	0
49	narrow0.5	0.200000	0.005000	0.048000	100.000000	0.200000	0	1	6	1	1	0.266700	0
50	narrow0.5	0.200000	0.001258	0.048000	100.000000	0.200000	0	1	34	1	1	1.228890	0
51	narrow0.5	0.200000	0.000010	0.048000	100.000000	0.200000	1	1	8	1	1	0.558200	0
52	narrow0.5	0.200000	0.001258	0.048000	100.000000	0.200000	0	1	14	0	0	0.950660	0
53	narrow0.5	0.200000	0.002505	0.048000	100.000000	0.200000	0	1	10	1	1	0.564340	0
54	narrow0.5	0.200000	0.000010	0.048000	100.000000	0.200000	0	0	2	0	1	0.344660	0
55	narrow0.5	0.200000	0.000010	0.048000	100.000000	0.200000	1	0	21	1	0	0.298290	0
56	narrow0.5	0.200000	0.003753	0.048000	100.000000	0.200000	1	1	4	1	1	0.580950	0
57	narrow0.5	0.200000	0.003753	0.048000	100.000000	0.200000	1	0	16	0	1	0.260190	0
58	narrow0.5	0.200000	0.002505	0.048000	100.000000	0.200000	0	0	1	0	1	0.689110	0
59	narrow0.5	0.200000	0.003753	0.048000	100.000000	0.200000	0	0	37	0	1	0.383360	0
60	narrow0.5	0.200000	0.003753	0.048000	100.000000	0.200000	1	1	8	1	1	0.137150	0
61	narrow0.5	0.200000	0.003753	0.048000	100.000000	0.200000	0	1	39	1	1	0.311390	0
62	narrow0.5	0.200000	0.003753	0.048000	100.000000	0.200000	1	0	5	0	1	0.293050	0
63	narrow0.5	0.200000	0.001258	0.048000	100.000000	0.200000	0	1	28	0	0	0.478840	0
64	narrow0.5	0.200000	0.000010	0.048000	100.000000	0.200000	1	0	21	1	0	0.200200	0
65	narrow0.5	0.200000	0.001258	0.048000	100.000000	0.200000	0	1	25	0	0	0.272120	0
66	narrow0.5	0.200000	0.005000	0.048000	100.000000	0.200000	0	0	6	0	1	0.439330	0
67	narrow0.5	0.200000	0.003753	0.048000	100.000000	0.200000	1	1	39	1	1	0.490620	0
68	narrow0.5	0.200000	0.002505	0.048000	100.000000	0.200000	1	0	31	0	1	0.809420	0
69	narrow0.5	0.200000	0.003753	0.048000	100.000000	0.200000	0	1	18	1	1	0.939280	0
70	narrow0.5	0.200000	0.001258	0.048000	100.000000	0.200000	0	1	23	0	0	0.565800	0
71	narrow0.5	0.200000	0.001258	0.048000	100.000000	0.200000	0	1	32	0	0	1.219640	0
72	narrow0.5	0.200000	0.002505	0.048000	100.000000	0.200000	1	1	36	1	1	0.367630	0
73	narrow0.5	0.200000	0.002505	0.048000	100.000000	0.200000	1	0	11	0	1	0.344120	0
74	narrow0.5	0.200000	0.003753	0.048000	100.000000	0.200000	1	0	7	0	1	0.389890	0
75	narrow0.5	0.200000	0.002505	0.048000	100.000000	0.200000	1	1	39	1	1	0.245780	0
76	narrow0.5	0.200000	0.001258	0.048000	100.000000	0.200000	0	1	4	0	0	0.470240	0
77	narrow0.5	0.200000	0.005000	0.048000	100.000000	0.200000	0	0	38	0	1	0.329150	0
78	narrow0.5	0.200000	0.003753	0.048000	100.000000	0.200000	1	0	3	0	1	0.497130	0
79	narrow0.5	0.200000	0.002505	0.048000	100.000000	0.200000	0	1	22	1	1	0.398000	0
80	narrow0.5	0.200000	0.001258	0.048000	100.000000	0.200000	0	0	35	1	0	0.447120	0
81	narrow0.5	0.200000	0.002505	0.048000	100.000000	0.200000	0	0	29	0	1	0.487750	0
82	narrow0.5	0.200000	0.000010	0.048000	100.000000	0.200000	0	0	36	1	0	0.595060	0
83	narrow0.5	0.200000	0.005000	0.048000	100.000000	0.200000	0	1	1	1	1	0.434940	0
84	narrow0.5	0.200000	0.003753	0.048000	100.000000	0.200000	1	0	5	0	1	0.512940	0
85	narrow0.5	0.200000	0.003753	0.048000	100.000000	0.200000	0	1	25	1	1	0.338510	0
86	narrow0.5	0.200000	0.005000	0.048000	100.000000	0.200000	1	1	37	1	1	0.377370	0
87	narrow0.5	0.200000	0.005000	0.048000	100.000000	0.200000	0	1	16	1	1	0.277650	0
88	narrow0.5	0.200000	0.001258	0.048000	100.000000	0.200000	0	0	34	0	1	0.488470	0
89	narrow0.5	0.200000	0.000010	0.048000	100.000000	0.200000	1	1	19	1	1	0.732730	0
90	narrow0.5	0.200000	0.001258	0.048000	100.000000	0.200000	1	1	18	0	0	0.822420	0
91	narrow0.5	0.200000	0.005000	0.048000	100.000000	0.200000	0	0	37	0	1	0.370820	0
92	narrow0.5	0.200000	0.003753	0.048000	100.000000	0.200000	0	1	28	1	1	0.240680	0
93	narrow0.5	0.200000	0.002505	0.048000	100.000000	0.200000	0	0	22	1	0	0.882780	0
94	narrow0.5	0.200000	0.002505	0.048000	100.000000	0.200000	1	1	13	1	1	0.261310	0
95	narrow0.5	0.200000	0.002505	0.048000	100.000000	0.200000	1	0	28	0	1	0.376700	0
96	narrow0.5	0.200000	0.001258	0.048000	100.000000	0.200000	1	1	7	1	1	0.557910	0
97	narrow0.5	0.200000	0.001258	0.048000	100.000000	0.200000	0	1	27	1	1	0.376070	0
98	narrow0.5	0.200000	0.001258	0.048000	100.000000	0.200000	1	0	22	0	1	0.487080	0
99	narrow0.5	0.200000	0.002505	0.048000	100.000000	0.200000	1	0	7	1	0	0.579340	0
