trial	noise	noise_contrast	edge_contrast	edge_width	mean_lum	stim_time	rotID	transID	maskID	resp	correct	resptime	dropframes
0	white	0.200000	0.011252	0.048000	100.000000	0.200000	0	1	8	1	1	1.607480	0
1	white	0.200000	0.011252	0.048000	100.000000	0.200000	0	1	27	1	1	0.376060	0
2	white	0.200000	0.015000	0.048000	100.000000	0.200000	1	1	31	1	1	0.210680	0
3	white	0.200000	0.011252	0.048000	100.000000	0.200000	1	0	4	0	1	0.293950	0
4	white	0.200000	0.000010	0.048000	100.000000	0.200000	0	0	25	0	1	0.797710	0
5	white	0.200000	0.015000	0.048000	100.000000	0.200000	0	0	19	0	1	0.234460	0
6	white	0.200000	0.000010	0.048000	100.000000	0.200000	1	1	22	1	1	0.349240	0
7	white	0.200000	0.000010	0.048000	100.000000	0.200000	1	0	37	0	1	0.540160	0
8	white	0.200000	0.011252	0.048000	100.000000	0.200000	0	1	6	1	1	0.180180	0
9	white	0.200000	0.000010	0.048000	100.000000	0.200000	1	0	33	0	1	0.454190	0
10	white	0.200000	0.000010	0.048000	100.000000	0.200000	1	0	28	0	1	0.738650	0
11	white	0.200000	0.007505	0.048000	100.000000	0.200000	0	0	11	0	1	0.243170	0
12	white	0.200000	0.011252	0.048000	100.000000	0.200000	0	1	36	1	1	0.141280	0
13	white	0.200000	0.003757	0.048000	100.000000	0.200000	1	0	2	1	0	0.817060	0
14	white	0.200000	0.000010	0.048000	100.000000	0.200000	1	1	33	0	0	1.093150	0
15	white	0.200000	0.011252	0.048000	100.000000	0.200000	0	0	33	0	1	0.382520	0
16	white	0.200000	0.007505	0.048000	100.000000	0.200000	1	0	0	0	1	0.395760	0
17	white	0.200000	0.007505	0.048000	100.000000	0.200000	1	0	23	0	1	0.290120	0
18	white	0.200000	0.015000	0.048000	100.000000	0.200000	0	0	12	0	1	0.197080	0
19	white	0.200000	0.000010	0.048000	100.000000	0.200000	1	0	12	0	1	0.559660	0
20	white	0.200000	0.007505	0.048000	100.000000	0.200000	1	1	6	0	0	0.323040	0
21	white	0.200000	0.000010	0.048000	100.000000	0.200000	1	0	3	1	0	0.273900	0
22	white	0.200000	0.011252	0.048000	100.000000	0.200000	0	1	11	1	1	0.219700	0
23	white	0.200000	0.015000	0.048000	100.000000	0.200000	1	1	2	1	1	0.429160	0
24	white	0.200000	0.003757	0.048000	100.000000	0.200000	1	1	20	0	0	0.338430	0
25	white	0.200000	0.003757	0.048000	100.000000	0.200000	1	0	31	0	1	0.563150	0
26	white	0.200000	0.007505	0.048000	100.000000	0.200000	0	1	4	0	0	0.644520	0
27	white	0.200000	0.003757	0.048000	100.000000	0.200000	1	0	17	1	0	2.132610	0
28	white	0.200000	0.015000	0.048000	100.000000	0.200000	0	1	0	1	1	0.445710	0
29	white	0.200000	0.007505	0.048000	100.000000	0.200000	0	1	16	1	1	0.611060	0
30	white	0.200000	0.000010	0.048000	100.000000	0.200000	0	0	18	0	1	1.019780	0
31	white	0.200000	0.000010	0.048000	100.000000	0.200000	1	1	37	1	1	1.181190	0
32	white	0.200000	0.003757	0.048000	100.000000	0.200000	0	1	8	0	0	0.770350	0
33	white	0.200000	0.003757	0.048000	100.000000	0.200000	1	1	31	0	0	0.774590	0
34	white	0.200000	0.000010	0.048000	100.000000	0.200000	1	1	29	1	1	1.034980	0
35	white	0.200000	0.000010	0.048000	100.000000	0.200000	1	0	32	0	1	0.825030	0
36	white	0.200000	0.007505	0.048000	100.000000	0.200000	1	0	1	0	1	0.451250	0
37	white	0.200000	0.015000	0.048000	100.000000	0.200000	0	1	39	1	1	0.313440	0
38	white	0.200000	0.015000	0.048000	100.000000	0.200000	0	0	12	0	1	0.330350	0
39	white	0.200000	0.007505	0.048000	100.000000	0.200000	1	0	2	0	1	0.584840	0
40	white	0.200000	0.007505	0.048000	100.000000	0.200000	0	1	16	1	1	0.476390	0
41	white	0.200000	0.007505	0.048000	100.000000	0.200000	1	1	24	0	0	0.826090	0
42	white	0.200000	0.011252	0.048000	100.000000	0.200000	0	0	12	0	1	0.271970	0
43	white	0.200000	0.007505	0.048000	100.000000	0.200000	1	1	39	1	1	0.244720	0
44	white	0.200000	0.011252	0.048000	100.000000	0.200000	1	0	8	0	1	0.206070	0
45	white	0.200000	0.015000	0.048000	100.000000	0.200000	0	0	27	0	1	0.353420	0
46	white	0.200000	0.011252	0.048000	100.000000	0.200000	0	1	25	1	1	0.360520	0
47	white	0.200000	0.015000	0.048000	100.000000	0.200000	1	1	31	1	1	0.283030	0
48	white	0.200000	0.000010	0.048000	100.000000	0.200000	1	1	21	0	0	0.253360	0
49	white	0.200000	0.003757	0.048000	100.000000	0.200000	1	1	28	0	0	0.339390	0
50	white	0.200000	0.011252	0.048000	100.000000	0.200000	0	0	17	0	1	0.288920	0
51	white	0.200000	0.000010	0.048000	100.000000	0.200000	1	0	9	1	0	0.448550	0
52	white	0.200000	0.015000	0.048000	100.000000	0.200000	0	0	23	0	1	0.316420	0
53	white	0.200000	0.007505	0.048000	100.000000	0.200000	1	1	37	1	1	0.293130	0
54	white	0.200000	0.011252	0.048000	100.000000	0.200000	1	1	36	1	1	0.232620	0
55	white	0.200000	0.007505	0.048000	100.000000	0.200000	0	1	34	1	1	0.249050	0
56	white	0.200000	0.011252	0.048000	100.000000	0.200000	0	0	7	0	1	0.374620	0
57	white	0.200000	0.015000	0.048000	100.000000	0.200000	0	1	1	1	1	0.227540	0
58	white	0.200000	0.003757	0.048000	100.000000	0.200000	1	0	32	0	1	0.464610	0
59	white	0.200000	0.007505	0.048000	100.000000	0.200000	0	0	28	0	1	0.526490	0
60	white	0.200000	0.015000	0.048000	100.000000	0.200000	1	1	5	1	1	0.335840	0
61	white	0.200000	0.011252	0.048000	100.000000	0.200000	1	1	35	1	1	0.289280	0
62	white	0.200000	0.011252	0.048000	100.000000	0.200000	0	0	5	0	1	0.278540	0
63	white	0.200000	0.011252	0.048000	100.000000	0.200000	1	0	20	0	1	0.225720	0
64	white	0.200000	0.003757	0.048000	100.000000	0.200000	0	0	39	0	1	0.430730	0
65	white	0.200000	0.015000	0.048000	100.000000	0.200000	1	1	33	1	1	0.381450	0
66	white	0.200000	0.007505	0.048000	100.000000	0.200000	1	0	16	0	1	0.393160	0
67	white	0.200000	0.000010	0.048000	100.000000	0.200000	0	0	21	0	1	0.990290	0
68	white	0.200000	0.000010	0.048000	100.000000	0.200000	1	1	11	1	1	0.494940	0
69	white	0.200000	0.003757	0.048000	100.000000	0.200000	0	1	30	0	0	0.764490	0
70	white	0.200000	0.007505	0.048000	100.000000	0.200000	0	0	20	0	1	0.437040	0
71	white	0.200000	0.000010	0.048000	100.000000	0.200000	1	1	31	1	1	0.621290	0
72	white	0.200000	0.015000	0.048000	100.000000	0.200000	1	1	4	1	1	0.239720	0
73	white	0.200000	0.015000	0.048000	100.000000	0.200000	0	1	16	1	1	0.344010	0
74	white	0.200000	0.007505	0.048000	100.000000	0.200000	1	0	26	0	1	0.770530	0
75	white	0.200000	0.015000	0.048000	100.000000	0.200000	1	1	37	1	1	0.566840	0
76	white	0.200000	0.015000	0.048000	100.000000	0.200000	0	0	37	0	1	0.358840	0
77	white	0.200000	0.015000	0.048000	100.000000	0.200000	0	0	20	0	1	0.345190	0
78	white	0.200000	0.007505	0.048000	100.000000	0.200000	0	0	19	0	1	0.391060	0
79	white	0.200000	0.003757	0.048000	100.000000	0.200000	0	0	38	0	1	0.598540	0
80	white	0.200000	0.003757	0.048000	100.000000	0.200000	1	1	24	0	0	0.350430	0
81	white	0.200000	0.015000	0.048000	100.000000	0.200000	0	0	6	0	1	0.241080	0
82	white	0.200000	0.003757	0.048000	100.000000	0.200000	0	0	30	1	0	0.721110	0
83	white	0.200000	0.003757	0.048000	100.000000	0.200000	0	1	1	0	0	0.428300	0
84	white	0.200000	0.003757	0.048000	100.000000	0.200000	1	0	13	1	0	0.632370	0
85	white	0.200000	0.011252	0.048000	100.000000	0.200000	1	0	22	0	1	0.266050	0
86	white	0.200000	0.003757	0.048000	100.000000	0.200000	1	0	34	0	1	0.685930	0
87	white	0.200000	0.003757	0.048000	100.000000	0.200000	0	0	21	0	1	0.520320	0
88	white	0.200000	0.003757	0.048000	100.000000	0.200000	0	0	20	0	1	0.838620	0
89	white	0.200000	0.003757	0.048000	100.000000	0.200000	1	0	35	1	0	0.663890	0
90	white	0.200000	0.000010	0.048000	100.000000	0.200000	0	1	33	0	0	0.389290	0
91	white	0.200000	0.011252	0.048000	100.000000	0.200000	0	0	0	0	1	0.373710	0
92	white	0.200000	0.015000	0.048000	100.000000	0.200000	0	0	38	0	1	0.133070	0
93	white	0.200000	0.003757	0.048000	100.000000	0.200000	0	1	20	1	1	0.439730	0
94	white	0.200000	0.007505	0.048000	100.000000	0.200000	1	0	15	0	1	0.727050	0
95	white	0.200000	0.011252	0.048000	100.000000	0.200000	1	1	39	1	1	0.308930	0
96	white	0.200000	0.000010	0.048000	100.000000	0.200000	0	0	24	0	1	1.066080	0
97	white	0.200000	0.011252	0.048000	100.000000	0.200000	1	1	4	1	1	0.385510	0
98	white	0.200000	0.000010	0.048000	100.000000	0.200000	0	1	25	0	0	0.539970	0
99	white	0.200000	0.007505	0.048000	100.000000	0.200000	1	0	27	1	0	0.570170	0
