trial	noise	noise_contrast	edge_contrast	edge_width	mean_lum	stim_time	rotID	transID	maskID	resp	correct	resptime	dropframes
0	narrow3	0.200000	0.007505	0.150000	100.000000	0.200000	1	1	11	1	1	0.430230	0
1	narrow3	0.200000	0.000010	0.150000	100.000000	0.200000	0	0	29	0	1	0.296400	0
2	narrow3	0.200000	0.011252	0.150000	100.000000	0.200000	0	0	35	1	0	0.308960	0
3	narrow3	0.200000	0.007505	0.150000	100.000000	0.200000	1	1	23	1	1	0.240390	0
4	narrow3	0.200000	0.015000	0.150000	100.000000	0.200000	1	0	38	0	1	0.380140	0
5	narrow3	0.200000	0.015000	0.150000	100.000000	0.200000	1	1	10	1	1	0.183960	0
6	narrow3	0.200000	0.000010	0.150000	100.000000	0.200000	1	0	33	1	0	0.402990	0
7	narrow3	0.200000	0.015000	0.150000	100.000000	0.200000	0	0	9	0	1	0.436200	0
8	narrow3	0.200000	0.000010	0.150000	100.000000	0.200000	0	1	23	1	1	0.463990	0
9	narrow3	0.200000	0.000010	0.150000	100.000000	0.200000	1	1	16	0	0	0.339620	0
10	narrow3	0.200000	0.011252	0.150000	100.000000	0.200000	0	1	39	1	1	0.211240	0
11	narrow3	0.200000	0.011252	0.150000	100.000000	0.200000	0	0	28	0	1	0.251970	0
12	narrow3	0.200000	0.003757	0.150000	100.000000	0.200000	1	0	32	1	0	0.228140	0
13	narrow3	0.200000	0.015000	0.150000	100.000000	0.200000	1	0	5	0	1	0.433090	0
14	narrow3	0.200000	0.011252	0.150000	100.000000	0.200000	0	1	35	1	1	0.287080	0
15	narrow3	0.200000	0.007505	0.150000	100.000000	0.200000	1	1	6	0	0	0.234550	0
16	narrow3	0.200000	0.015000	0.150000	100.000000	0.200000	0	1	15	1	1	0.200300	0
17	narrow3	0.200000	0.003757	0.150000	100.000000	0.200000	1	1	35	0	0	0.583910	0
18	narrow3	0.200000	0.003757	0.150000	100.000000	0.200000	0	1	29	1	1	0.328060	0
19	narrow3	0.200000	0.007505	0.150000	100.000000	0.200000	1	1	35	1	1	0.254410	0
20	narrow3	0.200000	0.011252	0.150000	100.000000	0.200000	0	0	29	0	1	0.318240	0
21	narrow3	0.200000	0.000010	0.150000	100.000000	0.200000	1	1	20	1	1	0.719960	0
22	narrow3	0.200000	0.007505	0.150000	100.000000	0.200000	1	0	14	0	1	0.258380	0
23	narrow3	0.200000	0.011252	0.150000	100.000000	0.200000	0	0	16	0	1	0.280710	1
24	narrow3	0.200000	0.003757	0.150000	100.000000	0.200000	0	1	9	1	1	0.453380	0
25	narrow3	0.200000	0.015000	0.150000	100.000000	0.200000	0	1	7	1	1	0.243880	0
26	narrow3	0.200000	0.011252	0.150000	100.000000	0.200000	1	1	21	1	1	0.241140	0
27	narrow3	0.200000	0.007505	0.150000	100.000000	0.200000	1	0	4	0	1	0.436600	0
28	narrow3	0.200000	0.007505	0.150000	100.000000	0.200000	1	1	33	1	1	0.252430	0
29	narrow3	0.200000	0.000010	0.150000	100.000000	0.200000	0	1	16	0	0	0.537400	0
30	narrow3	0.200000	0.000010	0.150000	100.000000	0.200000	1	1	29	1	1	0.257680	0
31	narrow3	0.200000	0.015000	0.150000	100.000000	0.200000	0	0	27	0	1	0.314020	0
32	narrow3	0.200000	0.015000	0.150000	100.000000	0.200000	1	0	12	0	1	0.357980	0
33	narrow3	0.200000	0.007505	0.150000	100.000000	0.200000	1	1	1	1	1	0.270880	0
34	narrow3	0.200000	0.000010	0.150000	100.000000	0.200000	1	0	18	1	0	0.468180	0
35	narrow3	0.200000	0.003757	0.150000	100.000000	0.200000	0	1	25	0	0	0.519840	0
36	narrow3	0.200000	0.015000	0.150000	100.000000	0.200000	1	0	4	0	1	0.405200	0
37	narrow3	0.200000	0.007505	0.150000	100.000000	0.200000	0	0	6	1	0	2.001760	0
38	narrow3	0.200000	0.007505	0.150000	100.000000	0.200000	1	0	30	1	0	0.395760	0
39	narrow3	0.200000	0.003757	0.150000	100.000000	0.200000	1	0	12	0	1	0.403780	0
40	narrow3	0.200000	0.003757	0.150000	100.000000	0.200000	1	0	37	0	1	0.320060	0
41	narrow3	0.200000	0.007505	0.150000	100.000000	0.200000	1	1	10	1	1	0.204560	0
42	narrow3	0.200000	0.003757	0.150000	100.000000	0.200000	0	1	30	1	1	0.293810	0
43	narrow3	0.200000	0.011252	0.150000	100.000000	0.200000	1	0	18	0	1	0.522810	0
44	narrow3	0.200000	0.007505	0.150000	100.000000	0.200000	0	0	26	0	1	0.420480	0
45	narrow3	0.200000	0.015000	0.150000	100.000000	0.200000	1	0	1	0	1	0.345770	0
46	narrow3	0.200000	0.003757	0.150000	100.000000	0.200000	0	1	22	0	0	3.220240	0
47	narrow3	0.200000	0.003757	0.150000	100.000000	0.200000	0	1	36	0	0	0.701850	0
48	narrow3	0.200000	0.007505	0.150000	100.000000	0.200000	0	0	24	1	0	0.771600	0
49	narrow3	0.200000	0.015000	0.150000	100.000000	0.200000	0	0	1	0	1	0.505220	0
50	narrow3	0.200000	0.007505	0.150000	100.000000	0.200000	0	0	39	1	0	0.561710	0
51	narrow3	0.200000	0.000010	0.150000	100.000000	0.200000	0	0	11	0	1	0.525940	0
52	narrow3	0.200000	0.007505	0.150000	100.000000	0.200000	1	1	10	1	1	0.383730	0
53	narrow3	0.200000	0.000010	0.150000	100.000000	0.200000	1	1	19	0	0	0.446010	0
54	narrow3	0.200000	0.015000	0.150000	100.000000	0.200000	1	0	8	0	1	0.411200	0
55	narrow3	0.200000	0.011252	0.150000	100.000000	0.200000	0	1	12	0	0	0.672710	0
56	narrow3	0.200000	0.003757	0.150000	100.000000	0.200000	0	1	7	0	0	0.801450	0
57	narrow3	0.200000	0.007505	0.150000	100.000000	0.200000	1	0	25	1	0	0.492850	0
58	narrow3	0.200000	0.003757	0.150000	100.000000	0.200000	1	0	28	0	1	0.561550	0
59	narrow3	0.200000	0.015000	0.150000	100.000000	0.200000	1	0	3	0	1	0.525110	0
60	narrow3	0.200000	0.011252	0.150000	100.000000	0.200000	0	1	23	1	1	0.332140	0
61	narrow3	0.200000	0.007505	0.150000	100.000000	0.200000	1	1	5	1	1	0.431180	0
62	narrow3	0.200000	0.003757	0.150000	100.000000	0.200000	1	1	11	0	0	0.735600	0
63	narrow3	0.200000	0.000010	0.150000	100.000000	0.200000	1	1	17	1	1	1.202020	0
64	narrow3	0.200000	0.011252	0.150000	100.000000	0.200000	1	0	10	0	1	0.640790	0
65	narrow3	0.200000	0.011252	0.150000	100.000000	0.200000	1	1	27	1	1	0.345330	0
66	narrow3	0.200000	0.003757	0.150000	100.000000	0.200000	0	0	6	0	1	0.696990	0
67	narrow3	0.200000	0.007505	0.150000	100.000000	0.200000	1	0	29	0	1	0.885330	0
68	narrow3	0.200000	0.000010	0.150000	100.000000	0.200000	0	1	25	1	1	0.682480	0
69	narrow3	0.200000	0.015000	0.150000	100.000000	0.200000	0	0	18	0	1	1.029610	0
70	narrow3	0.200000	0.011252	0.150000	100.000000	0.200000	0	0	36	1	0	0.908570	0
71	narrow3	0.200000	0.011252	0.150000	100.000000	0.200000	0	0	38	0	1	0.340520	0
72	narrow3	0.200000	0.003757	0.150000	100.000000	0.200000	1	0	13	0	1	0.635010	0
73	narrow3	0.200000	0.003757	0.150000	100.000000	0.200000	0	0	4	1	0	0.278230	0
74	narrow3	0.200000	0.000010	0.150000	100.000000	0.200000	0	1	28	0	0	0.478000	0
75	narrow3	0.200000	0.011252	0.150000	100.000000	0.200000	1	0	21	1	0	1.676230	0
76	narrow3	0.200000	0.000010	0.150000	100.000000	0.200000	0	1	18	1	1	0.830260	0
77	narrow3	0.200000	0.000010	0.150000	100.000000	0.200000	1	1	21	1	1	0.286790	0
78	narrow3	0.200000	0.000010	0.150000	100.000000	0.200000	0	1	10	1	1	0.174180	0
79	narrow3	0.200000	0.015000	0.150000	100.000000	0.200000	0	0	13	0	1	0.584200	0
80	narrow3	0.200000	0.015000	0.150000	100.000000	0.200000	0	0	38	0	1	0.455040	0
81	narrow3	0.200000	0.011252	0.150000	100.000000	0.200000	1	1	30	1	1	0.297950	0
82	narrow3	0.200000	0.007505	0.150000	100.000000	0.200000	0	0	15	1	0	0.670300	0
83	narrow3	0.200000	0.015000	0.150000	100.000000	0.200000	0	1	6	1	1	1.134360	0
84	narrow3	0.200000	0.000010	0.150000	100.000000	0.200000	1	1	31	1	1	1.086340	0
85	narrow3	0.200000	0.015000	0.150000	100.000000	0.200000	1	1	2	1	1	0.490170	0
86	narrow3	0.200000	0.011252	0.150000	100.000000	0.200000	0	1	34	1	1	0.663920	0
87	narrow3	0.200000	0.011252	0.150000	100.000000	0.200000	0	1	31	1	1	0.443810	0
88	narrow3	0.200000	0.003757	0.150000	100.000000	0.200000	0	0	14	1	0	0.500440	0
89	narrow3	0.200000	0.000010	0.150000	100.000000	0.200000	1	0	30	0	1	0.797060	0
90	narrow3	0.200000	0.000010	0.150000	100.000000	0.200000	1	0	15	1	0	1.253250	0
91	narrow3	0.200000	0.007505	0.150000	100.000000	0.200000	1	0	7	0	1	0.321610	0
92	narrow3	0.200000	0.015000	0.150000	100.000000	0.200000	1	0	17	0	1	0.601980	0
93	narrow3	0.200000	0.011252	0.150000	100.000000	0.200000	1	0	15	0	1	1.463840	0
94	narrow3	0.200000	0.003757	0.150000	100.000000	0.200000	1	1	36	1	1	0.453660	0
95	narrow3	0.200000	0.015000	0.150000	100.000000	0.200000	1	1	3	1	1	0.432220	0
96	narrow3	0.200000	0.000010	0.150000	100.000000	0.200000	0	1	4	0	0	0.410610	0
97	narrow3	0.200000	0.003757	0.150000	100.000000	0.200000	0	0	20	1	0	0.986230	0
98	narrow3	0.200000	0.003757	0.150000	100.000000	0.200000	1	0	13	0	1	0.270040	0
99	narrow3	0.200000	0.011252	0.150000	100.000000	0.200000	0	1	27	1	1	0.225690	0
