trial	noise	noise_contrast	edge_contrast	edge_width	mean_lum	stim_time	rotID	transID	maskID	resp	correct	resptime	dropframes
0	pink1	0.200000	0.011252	0.048000	100.000000	0.200000	0	1	0	1	1	0.385510	0
1	pink1	0.200000	0.011252	0.048000	100.000000	0.200000	0	1	9	1	1	0.238360	0
2	pink1	0.200000	0.007505	0.048000	100.000000	0.200000	0	1	6	1	1	0.323290	0
3	pink1	0.200000	0.000010	0.048000	100.000000	0.200000	1	1	30	1	1	1.255140	0
4	pink1	0.200000	0.011252	0.048000	100.000000	0.200000	0	1	1	1	1	0.210220	0
5	pink1	0.200000	0.003757	0.048000	100.000000	0.200000	1	0	31	0	1	0.323880	0
6	pink1	0.200000	0.015000	0.048000	100.000000	0.200000	0	1	12	1	1	0.323570	0
7	pink1	0.200000	0.011252	0.048000	100.000000	0.200000	1	1	2	1	1	0.459370	0
8	pink1	0.200000	0.000010	0.048000	100.000000	0.200000	0	1	32	0	0	0.521660	0
9	pink1	0.200000	0.007505	0.048000	100.000000	0.200000	1	0	14	1	0	0.373270	0
10	pink1	0.200000	0.007505	0.048000	100.000000	0.200000	0	1	29	0	0	0.250180	0
11	pink1	0.200000	0.007505	0.048000	100.000000	0.200000	0	0	23	0	1	0.348390	0
12	pink1	0.200000	0.011252	0.048000	100.000000	0.200000	0	1	35	1	1	0.193870	0
13	pink1	0.200000	0.011252	0.048000	100.000000	0.200000	0	1	32	1	1	0.794310	0
14	pink1	0.200000	0.000010	0.048000	100.000000	0.200000	1	1	8	1	1	0.344740	0
15	pink1	0.200000	0.003757	0.048000	100.000000	0.200000	1	1	37	1	1	0.884630	0
16	pink1	0.200000	0.011252	0.048000	100.000000	0.200000	0	1	3	1	1	0.295680	0
17	pink1	0.200000	0.003757	0.048000	100.000000	0.200000	0	1	18	0	0	0.364450	0
18	pink1	0.200000	0.007505	0.048000	100.000000	0.200000	1	0	25	1	0	0.282070	0
19	pink1	0.200000	0.015000	0.048000	100.000000	0.200000	1	1	26	1	1	0.333850	0
20	pink1	0.200000	0.000010	0.048000	100.000000	0.200000	0	0	30	0	1	0.338340	0
21	pink1	0.200000	0.015000	0.048000	100.000000	0.200000	0	1	4	1	1	0.410500	0
22	pink1	0.200000	0.000010	0.048000	100.000000	0.200000	1	1	12	0	0	0.443370	0
23	pink1	0.200000	0.003757	0.048000	100.000000	0.200000	1	1	5	1	1	0.261000	0
24	pink1	0.200000	0.011252	0.048000	100.000000	0.200000	0	0	15	0	1	0.436140	0
25	pink1	0.200000	0.003757	0.048000	100.000000	0.200000	1	1	20	1	1	0.509900	0
26	pink1	0.200000	0.000010	0.048000	100.000000	0.200000	0	1	16	0	0	0.359410	0
27	pink1	0.200000	0.015000	0.048000	100.000000	0.200000	0	0	11	0	1	0.393730	0
28	pink1	0.200000	0.000010	0.048000	100.000000	0.200000	1	0	23	1	0	0.665500	0
29	pink1	0.200000	0.015000	0.048000	100.000000	0.200000	0	0	33	0	1	0.453990	0
30	pink1	0.200000	0.011252	0.048000	100.000000	0.200000	1	1	27	0	0	1.067920	0
31	pink1	0.200000	0.003757	0.048000	100.000000	0.200000	0	0	20	0	1	0.472500	0
32	pink1	0.200000	0.015000	0.048000	100.000000	0.200000	0	0	27	0	1	0.305930	0
33	pink1	0.200000	0.007505	0.048000	100.000000	0.200000	1	1	7	0	0	0.736650	0
34	pink1	0.200000	0.003757	0.048000	100.000000	0.200000	1	1	38	0	0	0.619040	0
35	pink1	0.200000	0.003757	0.048000	100.000000	0.200000	1	1	31	0	0	0.763960	0
36	pink1	0.200000	0.000010	0.048000	100.000000	0.200000	0	0	29	1	0	0.491730	0
37	pink1	0.200000	0.011252	0.048000	100.000000	0.200000	0	0	35	0	1	0.582240	0
38	pink1	0.200000	0.007505	0.048000	100.000000	0.200000	1	0	20	0	1	0.445720	0
39	pink1	0.200000	0.015000	0.048000	100.000000	0.200000	0	1	13	1	1	0.543680	0
40	pink1	0.200000	0.003757	0.048000	100.000000	0.200000	0	1	36	0	0	0.648960	0
41	pink1	0.200000	0.003757	0.048000	100.000000	0.200000	1	1	30	1	1	0.503400	0
42	pink1	0.200000	0.011252	0.048000	100.000000	0.200000	0	1	21	1	1	0.412550	0
43	pink1	0.200000	0.011252	0.048000	100.000000	0.200000	0	1	14	1	1	0.284200	0
44	pink1	0.200000	0.015000	0.048000	100.000000	0.200000	0	0	2	0	1	0.561780	0
45	pink1	0.200000	0.000010	0.048000	100.000000	0.200000	0	1	32	1	1	0.573480	0
46	pink1	0.200000	0.011252	0.048000	100.000000	0.200000	1	1	18	1	1	0.318400	0
47	pink1	0.200000	0.007505	0.048000	100.000000	0.200000	1	1	27	1	1	0.598760	0
48	pink1	0.200000	0.007505	0.048000	100.000000	0.200000	0	0	29	0	1	0.613560	0
49	pink1	0.200000	0.011252	0.048000	100.000000	0.200000	1	1	11	0	0	0.635240	0
50	pink1	0.200000	0.000010	0.048000	100.000000	0.200000	0	0	30	1	0	0.641130	0
51	pink1	0.200000	0.015000	0.048000	100.000000	0.200000	1	0	26	0	1	0.360030	0
52	pink1	0.200000	0.015000	0.048000	100.000000	0.200000	1	0	22	0	1	0.321620	0
53	pink1	0.200000	0.015000	0.048000	100.000000	0.200000	1	0	28	0	1	0.335840	0
54	pink1	0.200000	0.011252	0.048000	100.000000	0.200000	0	1	5	1	1	0.254270	0
55	pink1	0.200000	0.000010	0.048000	100.000000	0.200000	1	1	10	1	1	0.379310	0
56	pink1	0.200000	0.003757	0.048000	100.000000	0.200000	1	1	21	0	0	0.276580	0
57	pink1	0.200000	0.011252	0.048000	100.000000	0.200000	0	0	22	0	1	0.255570	0
58	pink1	0.200000	0.003757	0.048000	100.000000	0.200000	1	0	18	1	0	0.392520	0
59	pink1	0.200000	0.000010	0.048000	100.000000	0.200000	0	0	3	0	1	0.244700	0
60	pink1	0.200000	0.007505	0.048000	100.000000	0.200000	1	0	4	1	0	0.430930	0
61	pink1	0.200000	0.015000	0.048000	100.000000	0.200000	0	1	6	1	1	0.159600	0
62	pink1	0.200000	0.000010	0.048000	100.000000	0.200000	1	1	21	0	0	0.589190	0
63	pink1	0.200000	0.007505	0.048000	100.000000	0.200000	1	1	8	1	1	0.199050	0
64	pink1	0.200000	0.003757	0.048000	100.000000	0.200000	1	1	9	0	0	0.796240	0
65	pink1	0.200000	0.015000	0.048000	100.000000	0.200000	1	1	6	1	1	0.212490	0
66	pink1	0.200000	0.011252	0.048000	100.000000	0.200000	0	0	15	0	1	0.512000	0
67	pink1	0.200000	0.003757	0.048000	100.000000	0.200000	0	1	28	0	0	0.506080	0
68	pink1	0.200000	0.015000	0.048000	100.000000	0.200000	1	0	28	0	1	0.390580	0
69	pink1	0.200000	0.000010	0.048000	100.000000	0.200000	1	0	10	1	0	0.274190	0
70	pink1	0.200000	0.007505	0.048000	100.000000	0.200000	0	1	25	1	1	1.110740	0
71	pink1	0.200000	0.007505	0.048000	100.000000	0.200000	0	1	35	0	0	0.465160	0
72	pink1	0.200000	0.003757	0.048000	100.000000	0.200000	1	1	39	1	1	1.598220	0
73	pink1	0.200000	0.003757	0.048000	100.000000	0.200000	0	0	26	0	1	0.416790	0
74	pink1	0.200000	0.007505	0.048000	100.000000	0.200000	1	1	8	1	1	0.325370	0
75	pink1	0.200000	0.011252	0.048000	100.000000	0.200000	1	1	27	1	1	0.498060	0
76	pink1	0.200000	0.007505	0.048000	100.000000	0.200000	0	0	7	0	1	0.346340	0
77	pink1	0.200000	0.003757	0.048000	100.000000	0.200000	1	1	18	0	0	1.335420	0
78	pink1	0.200000	0.011252	0.048000	100.000000	0.200000	0	1	36	1	1	0.374920	0
79	pink1	0.200000	0.000010	0.048000	100.000000	0.200000	0	0	6	0	1	0.399700	0
80	pink1	0.200000	0.003757	0.048000	100.000000	0.200000	0	1	5	0	0	1.172540	0
81	pink1	0.200000	0.015000	0.048000	100.000000	0.200000	0	1	34	1	1	0.281890	0
82	pink1	0.200000	0.015000	0.048000	100.000000	0.200000	1	1	37	1	1	0.242130	0
83	pink1	0.200000	0.000010	0.048000	100.000000	0.200000	0	1	37	1	1	0.334780	0
84	pink1	0.200000	0.000010	0.048000	100.000000	0.200000	0	1	24	0	0	0.438860	0
85	pink1	0.200000	0.015000	0.048000	100.000000	0.200000	1	0	37	0	1	0.242760	0
86	pink1	0.200000	0.015000	0.048000	100.000000	0.200000	1	0	34	0	1	0.250310	0
87	pink1	0.200000	0.015000	0.048000	100.000000	0.200000	1	1	8	1	1	0.244810	1
88	pink1	0.200000	0.000010	0.048000	100.000000	0.200000	0	0	19	0	1	0.741730	0
89	pink1	0.200000	0.007505	0.048000	100.000000	0.200000	0	1	19	1	1	0.241590	0
90	pink1	0.200000	0.007505	0.048000	100.000000	0.200000	1	0	11	0	1	0.284700	0
91	pink1	0.200000	0.000010	0.048000	100.000000	0.200000	1	1	9	1	1	0.813370	0
92	pink1	0.200000	0.007505	0.048000	100.000000	0.200000	1	1	8	1	1	0.391740	0
93	pink1	0.200000	0.007505	0.048000	100.000000	0.200000	1	0	20	0	1	0.510960	0
94	pink1	0.200000	0.015000	0.048000	100.000000	0.200000	1	0	20	0	1	0.256490	0
95	pink1	0.200000	0.000010	0.048000	100.000000	0.200000	1	0	14	1	0	0.459440	0
96	pink1	0.200000	0.003757	0.048000	100.000000	0.200000	1	1	31	1	1	0.369340	0
97	pink1	0.200000	0.007505	0.048000	100.000000	0.200000	1	0	37	0	1	0.472910	0
98	pink1	0.200000	0.011252	0.048000	100.000000	0.200000	0	0	4	0	1	0.365120	0
99	pink1	0.200000	0.003757	0.048000	100.000000	0.200000	0	1	5	0	0	0.649900	0
