trial	noise	noise_contrast	edge_contrast	edge_width	mean_lum	stim_time	rotID	transID	maskID	resp	correct	resptime	dropframes
0	pink1	0.200000	0.037503	0.950000	100.000000	0.200000	1	0	20	0	1	0.204920	1
1	pink1	0.200000	0.050000	0.950000	100.000000	0.200000	1	0	24	0	1	0.260420	0
2	pink1	0.200000	0.025005	0.950000	100.000000	0.200000	1	0	2	1	0	0.383910	0
3	pink1	0.200000	0.050000	0.950000	100.000000	0.200000	1	1	0	1	1	0.133630	0
4	pink1	0.200000	0.012507	0.950000	100.000000	0.200000	1	0	8	1	0	0.254160	0
5	pink1	0.200000	0.050000	0.950000	100.000000	0.200000	0	0	18	0	1	0.387360	0
6	pink1	0.200000	0.050000	0.950000	100.000000	0.200000	0	0	37	0	1	0.481450	0
7	pink1	0.200000	0.012507	0.950000	100.000000	0.200000	1	1	20	0	0	0.722840	0
8	pink1	0.200000	0.025005	0.950000	100.000000	0.200000	1	1	16	0	0	0.901910	0
9	pink1	0.200000	0.025005	0.950000	100.000000	0.200000	0	0	4	0	1	0.253010	0
10	pink1	0.200000	0.037503	0.950000	100.000000	0.200000	0	0	27	0	1	0.344340	0
11	pink1	0.200000	0.037503	0.950000	100.000000	0.200000	1	1	3	1	1	0.209860	0
12	pink1	0.200000	0.050000	0.950000	100.000000	0.200000	0	1	15	1	1	0.309470	0
13	pink1	0.200000	0.000010	0.950000	100.000000	0.200000	0	1	33	0	0	0.931360	0
14	pink1	0.200000	0.037503	0.950000	100.000000	0.200000	0	1	23	1	1	0.302740	0
15	pink1	0.200000	0.000010	0.950000	100.000000	0.200000	1	1	19	1	1	1.255370	0
16	pink1	0.200000	0.025005	0.950000	100.000000	0.200000	1	1	25	1	1	0.521310	0
17	pink1	0.200000	0.025005	0.950000	100.000000	0.200000	1	1	16	1	1	1.388460	0
18	pink1	0.200000	0.000010	0.950000	100.000000	0.200000	0	0	24	0	1	0.319360	0
19	pink1	0.200000	0.037503	0.950000	100.000000	0.200000	0	0	7	0	1	0.306550	0
20	pink1	0.200000	0.025005	0.950000	100.000000	0.200000	1	0	14	0	1	0.318250	0
21	pink1	0.200000	0.025005	0.950000	100.000000	0.200000	0	0	2	0	1	0.354680	0
22	pink1	0.200000	0.012507	0.950000	100.000000	0.200000	0	1	2	0	0	0.400300	0
23	pink1	0.200000	0.012507	0.950000	100.000000	0.200000	1	0	26	1	0	0.506170	0
24	pink1	0.200000	0.050000	0.950000	100.000000	0.200000	0	0	31	0	1	0.310640	0
25	pink1	0.200000	0.012507	0.950000	100.000000	0.200000	0	0	10	0	1	0.497390	0
26	pink1	0.200000	0.012507	0.950000	100.000000	0.200000	1	0	7	0	1	0.629990	0
27	pink1	0.200000	0.037503	0.950000	100.000000	0.200000	0	0	0	0	1	0.399930	0
28	pink1	0.200000	0.025005	0.950000	100.000000	0.200000	1	1	39	1	1	0.800230	0
29	pink1	0.200000	0.037503	0.950000	100.000000	0.200000	1	0	19	0	1	0.214940	0
30	pink1	0.200000	0.000010	0.950000	100.000000	0.200000	1	0	24	1	0	0.357880	0
31	pink1	0.200000	0.037503	0.950000	100.000000	0.200000	1	1	24	1	1	0.241710	0
32	pink1	0.200000	0.025005	0.950000	100.000000	0.200000	0	1	28	1	1	0.510130	0
33	pink1	0.200000	0.037503	0.950000	100.000000	0.200000	0	1	38	1	1	0.241610	0
34	pink1	0.200000	0.037503	0.950000	100.000000	0.200000	1	0	6	0	1	0.311840	0
35	pink1	0.200000	0.037503	0.950000	100.000000	0.200000	1	0	14	0	1	0.387070	0
36	pink1	0.200000	0.012507	0.950000	100.000000	0.200000	0	1	28	1	1	0.629630	0
37	pink1	0.200000	0.000010	0.950000	100.000000	0.200000	0	1	13	0	0	0.437600	0
38	pink1	0.200000	0.050000	0.950000	100.000000	0.200000	1	1	14	1	1	0.133050	0
39	pink1	0.200000	0.037503	0.950000	100.000000	0.200000	1	0	13	0	1	0.199170	0
40	pink1	0.200000	0.000010	0.950000	100.000000	0.200000	1	0	8	1	0	0.227500	0
41	pink1	0.200000	0.025005	0.950000	100.000000	0.200000	0	1	31	0	0	0.356190	0
42	pink1	0.200000	0.012507	0.950000	100.000000	0.200000	1	1	19	1	1	0.342710	0
43	pink1	0.200000	0.050000	0.950000	100.000000	0.200000	1	0	0	0	1	0.282050	0
44	pink1	0.200000	0.050000	0.950000	100.000000	0.200000	1	0	5	0	1	0.330900	0
45	pink1	0.200000	0.025005	0.950000	100.000000	0.200000	1	1	6	0	0	0.359800	0
46	pink1	0.200000	0.050000	0.950000	100.000000	0.200000	1	0	8	0	1	0.307690	0
47	pink1	0.200000	0.000010	0.950000	100.000000	0.200000	0	1	26	1	1	0.331450	0
48	pink1	0.200000	0.012507	0.950000	100.000000	0.200000	1	0	6	0	1	0.389810	0
49	pink1	0.200000	0.050000	0.950000	100.000000	0.200000	0	1	38	1	1	0.375120	0
50	pink1	0.200000	0.012507	0.950000	100.000000	0.200000	1	1	17	0	0	0.383670	0
51	pink1	0.200000	0.025005	0.950000	100.000000	0.200000	0	0	8	0	1	0.300110	0
52	pink1	0.200000	0.012507	0.950000	100.000000	0.200000	0	1	17	1	1	0.722570	0
53	pink1	0.200000	0.025005	0.950000	100.000000	0.200000	1	0	31	0	1	0.435080	0
54	pink1	0.200000	0.000010	0.950000	100.000000	0.200000	1	1	26	0	0	0.496970	0
55	pink1	0.200000	0.012507	0.950000	100.000000	0.200000	0	1	25	1	1	0.179070	0
56	pink1	0.200000	0.012507	0.950000	100.000000	0.200000	1	1	2	1	1	0.354970	0
57	pink1	0.200000	0.012507	0.950000	100.000000	0.200000	0	0	30	0	1	0.404970	0
58	pink1	0.200000	0.037503	0.950000	100.000000	0.200000	1	1	27	0	0	1.179950	0
59	pink1	0.200000	0.012507	0.950000	100.000000	0.200000	1	0	1	0	1	0.414410	0
60	pink1	0.200000	0.037503	0.950000	100.000000	0.200000	0	0	6	0	1	0.298190	0
61	pink1	0.200000	0.025005	0.950000	100.000000	0.200000	1	1	39	1	1	0.207650	0
62	pink1	0.200000	0.000010	0.950000	100.000000	0.200000	1	1	14	0	0	1.333730	0
63	pink1	0.200000	0.050000	0.950000	100.000000	0.200000	1	0	6	0	1	0.288290	0
64	pink1	0.200000	0.000010	0.950000	100.000000	0.200000	1	1	29	1	1	0.257180	0
65	pink1	0.200000	0.050000	0.950000	100.000000	0.200000	1	0	25	0	1	0.326440	0
66	pink1	0.200000	0.050000	0.950000	100.000000	0.200000	0	0	0	0	1	0.402540	0
67	pink1	0.200000	0.000010	0.950000	100.000000	0.200000	1	1	22	0	0	0.545300	0
68	pink1	0.200000	0.012507	0.950000	100.000000	0.200000	0	0	4	0	1	0.344460	0
69	pink1	0.200000	0.000010	0.950000	100.000000	0.200000	1	1	12	1	1	0.263420	0
70	pink1	0.200000	0.037503	0.950000	100.000000	0.200000	0	0	38	0	1	0.345550	0
71	pink1	0.200000	0.025005	0.950000	100.000000	0.200000	1	0	10	0	1	0.386000	0
72	pink1	0.200000	0.025005	0.950000	100.000000	0.200000	1	1	37	1	1	0.248860	0
73	pink1	0.200000	0.025005	0.950000	100.000000	0.200000	1	0	26	0	1	0.311720	0
74	pink1	0.200000	0.000010	0.950000	100.000000	0.200000	0	1	8	0	0	0.625210	0
75	pink1	0.200000	0.012507	0.950000	100.000000	0.200000	0	1	19	0	0	0.238820	0
76	pink1	0.200000	0.000010	0.950000	100.000000	0.200000	0	1	16	1	1	0.210970	0
77	pink1	0.200000	0.050000	0.950000	100.000000	0.200000	0	1	22	1	1	0.231510	0
78	pink1	0.200000	0.000010	0.950000	100.000000	0.200000	0	0	29	0	1	0.420180	0
79	pink1	0.200000	0.037503	0.950000	100.000000	0.200000	1	0	39	0	1	0.313340	0
80	pink1	0.200000	0.037503	0.950000	100.000000	0.200000	0	1	1	1	1	0.189940	0
81	pink1	0.200000	0.025005	0.950000	100.000000	0.200000	1	0	32	1	0	0.602660	0
82	pink1	0.200000	0.000010	0.950000	100.000000	0.200000	0	0	11	1	0	0.349500	0
83	pink1	0.200000	0.000010	0.950000	100.000000	0.200000	0	0	12	0	1	0.214430	0
84	pink1	0.200000	0.037503	0.950000	100.000000	0.200000	0	0	36	0	1	0.148070	0
85	pink1	0.200000	0.000010	0.950000	100.000000	0.200000	0	0	5	0	1	0.529050	0
86	pink1	0.200000	0.012507	0.950000	100.000000	0.200000	0	1	16	1	1	0.228050	0
87	pink1	0.200000	0.012507	0.950000	100.000000	0.200000	1	0	34	0	1	0.255930	0
88	pink1	0.200000	0.012507	0.950000	100.000000	0.200000	1	1	9	1	1	0.233440	0
89	pink1	0.200000	0.050000	0.950000	100.000000	0.200000	1	1	2	1	1	0.141170	0
90	pink1	0.200000	0.037503	0.950000	100.000000	0.200000	0	1	2	1	1	0.835440	0
91	pink1	0.200000	0.025005	0.950000	100.000000	0.200000	1	1	11	0	0	0.813910	0
92	pink1	0.200000	0.025005	0.950000	100.000000	0.200000	0	1	28	0	0	0.931440	0
93	pink1	0.200000	0.000010	0.950000	100.000000	0.200000	0	0	35	0	1	0.430450	0
94	pink1	0.200000	0.050000	0.950000	100.000000	0.200000	1	1	0	1	1	0.407450	0
95	pink1	0.200000	0.000010	0.950000	100.000000	0.200000	0	1	7	0	0	0.312340	0
96	pink1	0.200000	0.050000	0.950000	100.000000	0.200000	1	0	3	0	1	0.293570	0
97	pink1	0.200000	0.050000	0.950000	100.000000	0.200000	0	1	36	1	1	0.396900	0
98	pink1	0.200000	0.037503	0.950000	100.000000	0.200000	0	1	8	1	1	0.407780	0
99	pink1	0.200000	0.050000	0.950000	100.000000	0.200000	0	0	29	0	1	0.288510	0
