trial	noise	noise_contrast	edge_contrast	edge_width	mean_lum	stim_time	rotID	transID	maskID	resp	correct	resptime	dropframes
0	narrow9	0.200000	0.005627	0.950000	100.000000	0.200000	1	0	8	0	1	0.282500	0
1	narrow9	0.200000	0.005627	0.950000	100.000000	0.200000	0	0	28	0	1	0.200080	0
2	narrow9	0.200000	0.000010	0.950000	100.000000	0.200000	1	0	10	0	1	0.812770	0
3	narrow9	0.200000	0.000010	0.950000	100.000000	0.200000	0	0	2	0	1	0.544420	0
4	narrow9	0.200000	0.005627	0.950000	100.000000	0.200000	1	0	14	0	1	0.198560	0
5	narrow9	0.200000	0.003755	0.950000	100.000000	0.200000	1	1	14	1	1	0.275260	0
6	narrow9	0.200000	0.003755	0.950000	100.000000	0.200000	0	1	26	0	0	0.630940	0
7	narrow9	0.200000	0.005627	0.950000	100.000000	0.200000	1	0	34	0	1	0.545110	0
8	narrow9	0.200000	0.007500	0.950000	100.000000	0.200000	0	0	7	0	1	0.260280	0
9	narrow9	0.200000	0.005627	0.950000	100.000000	0.200000	1	1	20	1	1	0.292910	0
10	narrow9	0.200000	0.003755	0.950000	100.000000	0.200000	1	1	29	1	1	0.327540	0
11	narrow9	0.200000	0.007500	0.950000	100.000000	0.200000	0	1	9	1	1	0.239190	0
12	narrow9	0.200000	0.003755	0.950000	100.000000	0.200000	1	1	28	1	1	0.240490	0
13	narrow9	0.200000	0.005627	0.950000	100.000000	0.200000	0	1	0	1	1	0.265460	0
14	narrow9	0.200000	0.000010	0.950000	100.000000	0.200000	1	0	29	0	1	0.612120	0
15	narrow9	0.200000	0.001883	0.950000	100.000000	0.200000	1	0	3	1	0	0.554280	0
16	narrow9	0.200000	0.005627	0.950000	100.000000	0.200000	1	1	15	1	1	0.334980	0
17	narrow9	0.200000	0.001883	0.950000	100.000000	0.200000	0	0	29	0	1	0.361880	0
18	narrow9	0.200000	0.000010	0.950000	100.000000	0.200000	1	1	6	0	0	1.570940	0
19	narrow9	0.200000	0.007500	0.950000	100.000000	0.200000	0	0	25	0	1	0.311710	0
20	narrow9	0.200000	0.000010	0.950000	100.000000	0.200000	1	0	4	1	0	0.613540	0
21	narrow9	0.200000	0.005627	0.950000	100.000000	0.200000	0	1	31	1	1	0.287650	0
22	narrow9	0.200000	0.007500	0.950000	100.000000	0.200000	1	1	35	1	1	0.404670	0
23	narrow9	0.200000	0.003755	0.950000	100.000000	0.200000	0	1	14	1	1	0.852420	0
24	narrow9	0.200000	0.005627	0.950000	100.000000	0.200000	1	0	25	0	1	0.288250	0
25	narrow9	0.200000	0.000010	0.950000	100.000000	0.200000	1	0	2	1	0	0.806670	0
26	narrow9	0.200000	0.003755	0.950000	100.000000	0.200000	0	0	34	0	1	0.300710	0
27	narrow9	0.200000	0.001883	0.950000	100.000000	0.200000	1	0	5	1	0	0.919620	0
28	narrow9	0.200000	0.007500	0.950000	100.000000	0.200000	1	1	33	1	1	0.669280	0
29	narrow9	0.200000	0.001883	0.950000	100.000000	0.200000	0	1	14	0	0	0.387460	0
30	narrow9	0.200000	0.007500	0.950000	100.000000	0.200000	1	0	34	0	1	0.265890	0
31	narrow9	0.200000	0.000010	0.950000	100.000000	0.200000	0	1	24	0	0	0.849060	0
32	narrow9	0.200000	0.007500	0.950000	100.000000	0.200000	1	1	16	1	1	0.268530	0
33	narrow9	0.200000	0.003755	0.950000	100.000000	0.200000	0	1	6	1	1	0.465240	0
34	narrow9	0.200000	0.003755	0.950000	100.000000	0.200000	0	1	6	1	1	0.235930	0
35	narrow9	0.200000	0.005627	0.950000	100.000000	0.200000	0	0	35	0	1	0.168200	0
36	narrow9	0.200000	0.000010	0.950000	100.000000	0.200000	1	1	13	0	0	0.220930	0
37	narrow9	0.200000	0.001883	0.950000	100.000000	0.200000	1	0	2	0	1	0.774570	0
38	narrow9	0.200000	0.005627	0.950000	100.000000	0.200000	0	0	8	0	1	0.189280	0
39	narrow9	0.200000	0.001883	0.950000	100.000000	0.200000	0	0	4	0	1	0.675440	0
40	narrow9	0.200000	0.005627	0.950000	100.000000	0.200000	1	1	28	1	1	0.342060	0
41	narrow9	0.200000	0.001883	0.950000	100.000000	0.200000	0	1	4	0	0	0.745730	0
42	narrow9	0.200000	0.007500	0.950000	100.000000	0.200000	1	1	20	1	1	0.314630	0
43	narrow9	0.200000	0.000010	0.950000	100.000000	0.200000	1	0	39	1	0	0.698350	0
44	narrow9	0.200000	0.000010	0.950000	100.000000	0.200000	1	0	38	0	1	0.442270	0
45	narrow9	0.200000	0.005627	0.950000	100.000000	0.200000	0	0	30	0	1	0.300050	0
46	narrow9	0.200000	0.000010	0.950000	100.000000	0.200000	0	0	36	0	1	0.306610	0
47	narrow9	0.200000	0.007500	0.950000	100.000000	0.200000	0	0	12	0	1	0.373060	0
48	narrow9	0.200000	0.001883	0.950000	100.000000	0.200000	0	0	21	0	1	1.841640	0
49	narrow9	0.200000	0.003755	0.950000	100.000000	0.200000	1	1	37	1	1	0.656420	0
50	narrow9	0.200000	0.007500	0.950000	100.000000	0.200000	1	1	27	1	1	0.579520	0
51	narrow9	0.200000	0.003755	0.950000	100.000000	0.200000	1	1	10	1	1	0.278700	0
52	narrow9	0.200000	0.001883	0.950000	100.000000	0.200000	0	0	1	1	0	0.477410	0
53	narrow9	0.200000	0.003755	0.950000	100.000000	0.200000	0	0	29	0	1	0.254020	0
54	narrow9	0.200000	0.007500	0.950000	100.000000	0.200000	0	1	9	1	1	0.265040	0
55	narrow9	0.200000	0.001883	0.950000	100.000000	0.200000	0	0	26	0	1	0.334490	0
56	narrow9	0.200000	0.000010	0.950000	100.000000	0.200000	0	1	3	1	1	0.415100	0
57	narrow9	0.200000	0.005627	0.950000	100.000000	0.200000	0	0	16	0	1	0.172810	0
58	narrow9	0.200000	0.003755	0.950000	100.000000	0.200000	1	0	2	0	1	0.371210	0
59	narrow9	0.200000	0.000010	0.950000	100.000000	0.200000	0	0	19	0	1	0.402980	0
60	narrow9	0.200000	0.003755	0.950000	100.000000	0.200000	0	0	37	0	1	0.315360	0
61	narrow9	0.200000	0.007500	0.950000	100.000000	0.200000	1	1	8	1	1	0.462230	0
62	narrow9	0.200000	0.003755	0.950000	100.000000	0.200000	1	1	11	1	1	0.241200	0
63	narrow9	0.200000	0.005627	0.950000	100.000000	0.200000	1	0	36	0	1	0.330840	0
64	narrow9	0.200000	0.000010	0.950000	100.000000	0.200000	0	1	15	1	1	0.858150	0
65	narrow9	0.200000	0.007500	0.950000	100.000000	0.200000	1	1	19	1	1	0.198930	0
66	narrow9	0.200000	0.003755	0.950000	100.000000	0.200000	1	1	2	1	1	0.301040	0
67	narrow9	0.200000	0.000010	0.950000	100.000000	0.200000	0	0	28	1	0	0.756600	0
68	narrow9	0.200000	0.003755	0.950000	100.000000	0.200000	0	0	19	0	1	0.433430	0
69	narrow9	0.200000	0.001883	0.950000	100.000000	0.200000	0	1	23	0	0	0.932330	0
70	narrow9	0.200000	0.001883	0.950000	100.000000	0.200000	1	0	38	1	0	1.360960	0
71	narrow9	0.200000	0.003755	0.950000	100.000000	0.200000	0	0	5	0	1	0.344000	0
72	narrow9	0.200000	0.001883	0.950000	100.000000	0.200000	1	0	38	1	0	0.252040	0
73	narrow9	0.200000	0.005627	0.950000	100.000000	0.200000	0	1	21	1	1	0.225050	0
74	narrow9	0.200000	0.000010	0.950000	100.000000	0.200000	1	0	23	0	1	0.150790	0
75	narrow9	0.200000	0.001883	0.950000	100.000000	0.200000	1	1	35	1	1	0.330950	0
76	narrow9	0.200000	0.007500	0.950000	100.000000	0.200000	1	1	18	1	1	0.255900	0
77	narrow9	0.200000	0.001883	0.950000	100.000000	0.200000	1	0	34	0	1	0.577100	0
78	narrow9	0.200000	0.001883	0.950000	100.000000	0.200000	1	1	7	1	1	0.607910	0
79	narrow9	0.200000	0.007500	0.950000	100.000000	0.200000	1	1	36	1	1	0.366410	0
80	narrow9	0.200000	0.007500	0.950000	100.000000	0.200000	0	1	1	1	1	0.273780	0
81	narrow9	0.200000	0.000010	0.950000	100.000000	0.200000	0	0	23	1	0	0.458240	0
82	narrow9	0.200000	0.005627	0.950000	100.000000	0.200000	1	1	13	1	1	0.253790	0
83	narrow9	0.200000	0.000010	0.950000	100.000000	0.200000	0	0	11	1	0	1.938560	0
84	narrow9	0.200000	0.005627	0.950000	100.000000	0.200000	1	0	26	0	1	0.127960	0
85	narrow9	0.200000	0.000010	0.950000	100.000000	0.200000	0	1	35	0	0	0.681610	0
86	narrow9	0.200000	0.003755	0.950000	100.000000	0.200000	1	0	12	0	1	0.386730	0
87	narrow9	0.200000	0.001883	0.950000	100.000000	0.200000	0	1	27	1	1	0.291380	0
88	narrow9	0.200000	0.005627	0.950000	100.000000	0.200000	1	0	5	0	1	0.416420	0
89	narrow9	0.200000	0.001883	0.950000	100.000000	0.200000	1	1	20	1	1	2.572690	0
90	narrow9	0.200000	0.007500	0.950000	100.000000	0.200000	0	0	36	0	1	0.373510	0
91	narrow9	0.200000	0.007500	0.950000	100.000000	0.200000	0	1	30	1	1	0.288700	0
92	narrow9	0.200000	0.007500	0.950000	100.000000	0.200000	0	1	4	1	1	0.302850	0
93	narrow9	0.200000	0.005627	0.950000	100.000000	0.200000	0	1	14	1	1	0.224700	0
94	narrow9	0.200000	0.001883	0.950000	100.000000	0.200000	1	0	10	1	0	0.617290	0
95	narrow9	0.200000	0.001883	0.950000	100.000000	0.200000	1	1	38	1	1	0.223670	0
96	narrow9	0.200000	0.003755	0.950000	100.000000	0.200000	1	1	36	1	1	0.159430	0
97	narrow9	0.200000	0.003755	0.950000	100.000000	0.200000	1	1	6	1	1	0.224360	0
98	narrow9	0.200000	0.007500	0.950000	100.000000	0.200000	1	1	14	1	1	0.288160	0
99	narrow9	0.200000	0.000010	0.950000	100.000000	0.200000	0	1	20	0	0	1.185960	0
