trial	noise	noise_contrast	edge_contrast	edge_width	mean_lum	stim_time	rotID	transID	maskID	resp	correct	resptime	dropframes
0	narrow3	0.200000	0.020000	0.048000	100.000000	0.500000	0	1	37	1	1	0.053420	0
1	narrow3	0.200000	0.050000	0.950000	100.000000	0.500000	1	1	30	1	1	2.989570	0
2	pink1	0.200000	0.030000	0.048000	100.000000	0.500000	1	1	25	1	1	0.030220	0
3	narrow9	0.200000	0.015000	0.150000	100.000000	0.500000	0	0	4	0	1	0.615540	0
4	narrow9	0.200000	0.020000	0.950000	100.000000	0.500000	0	0	1	0	1	1.890690	0
5	none	0.200000	0.010000	0.950000	100.000000	0.500000	1	1	30	1	1	0.109840	0
6	white	0.200000	0.030000	0.048000	100.000000	0.500000	0	1	35	1	1	0.317550	0
7	narrow3	0.200000	0.050000	0.950000	100.000000	0.500000	0	0	38	0	1	0.199350	0
8	none	0.200000	0.010000	0.150000	100.000000	0.500000	0	0	16	0	1	0.055730	0
9	narrow9	0.200000	0.015000	0.150000	100.000000	0.500000	0	1	1	1	1	0.334730	0
10	narrow3	0.200000	0.020000	0.048000	100.000000	0.500000	1	1	18	1	1	0.213810	0
11	none	0.200000	0.010000	0.150000	100.000000	0.500000	0	0	12	0	1	0.251640	0
12	narrow3	0.200000	0.025000	0.150000	100.000000	0.500000	1	0	33	0	1	0.097010	0
13	none	0.200000	0.010000	0.950000	100.000000	0.500000	0	0	26	0	1	0.051940	0
14	narrow9	0.200000	0.030000	0.048000	100.000000	0.500000	1	0	16	0	1	0.173790	0
15	pink1	0.200000	0.030000	0.048000	100.000000	0.200000	0	1	28	1	1	0.388090	0
16	narrow0.5	0.200000	0.015000	0.950000	100.000000	0.200000	1	1	19	1	1	0.332410	0
17	pink1	0.200000	0.030000	0.150000	100.000000	0.200000	1	0	3	0	1	0.315410	0
18	narrow0.5	0.200000	0.015000	0.150000	100.000000	0.200000	1	0	28	0	1	0.223890	0
19	none	0.200000	0.010000	0.950000	100.000000	0.200000	0	1	26	1	1	0.051850	0
20	narrow0.5	0.200000	0.010000	0.048000	100.000000	0.200000	1	0	1	0	1	0.067880	0
21	narrow0.5	0.200000	0.015000	0.150000	100.000000	0.200000	0	1	23	1	1	0.214170	0
22	pink2	0.200000	0.015000	0.048000	100.000000	0.200000	1	1	25	1	1	0.129250	0
23	narrow0.5	0.200000	0.010000	0.048000	100.000000	0.200000	1	0	13	0	1	0.055930	0
24	pink1	0.200000	0.030000	0.150000	100.000000	0.200000	0	1	21	1	1	0.054800	0
25	pink2	0.200000	0.015000	0.150000	100.000000	0.200000	1	0	20	0	1	0.084500	0
26	white	0.200000	0.030000	0.048000	100.000000	0.200000	1	0	6	0	1	0.082000	0
27	white	0.200000	0.020000	0.950000	100.000000	0.200000	1	0	34	0	1	0.367370	0
28	white	0.200000	0.020000	0.150000	100.000000	0.200000	0	0	26	0	1	0.223550	0
29	narrow9	0.200000	0.020000	0.950000	100.000000	0.200000	0	1	25	1	1	0.258380	0
30	narrow9	0.200000	0.030000	0.048000	100.000000	0.200000	0	1	36	1	1	0.123270	0
31	narrow9	0.200000	0.020000	0.950000	100.000000	0.200000	1	1	33	1	1	0.155620	0
32	none	0.200000	0.010000	0.950000	100.000000	0.200000	0	1	17	1	1	0.195040	0
33	white	0.200000	0.030000	0.048000	100.000000	0.200000	0	1	10	1	1	0.122620	0
34	narrow9	0.200000	0.020000	0.950000	100.000000	0.200000	1	1	35	1	1	0.203840	0
35	none	0.200000	0.010000	0.150000	100.000000	0.200000	0	1	5	1	1	0.185200	0
36	none	0.200000	0.010000	0.150000	100.000000	0.200000	0	0	25	0	1	0.179740	0
37	none	0.200000	0.010000	0.150000	100.000000	0.200000	1	0	0	0	1	0.147880	0
38	none	0.200000	0.010000	0.150000	100.000000	0.200000	1	1	0	1	1	0.107760	0
39	white	0.200000	0.030000	0.048000	100.000000	0.200000	1	1	34	1	1	0.156540	0
40	narrow9	0.200000	0.020000	0.950000	100.000000	0.200000	1	1	7	1	1	0.097890	0
41	none	0.200000	0.010000	0.048000	100.000000	0.200000	1	0	6	0	1	0.106320	0
42	pink1	0.200000	0.030000	0.150000	100.000000	0.200000	1	0	11	0	1	0.124630	0
43	none	0.200000	0.010000	0.950000	100.000000	0.200000	0	0	36	0	1	0.099150	0
44	pink1	0.200000	0.030000	0.048000	100.000000	0.200000	1	0	9	0	1	0.125070	0
45	none	0.200000	0.010000	0.950000	100.000000	0.200000	1	1	15	1	1	0.080810	0
46	white	0.200000	0.030000	0.048000	100.000000	0.200000	1	1	35	1	1	0.080750	0
47	none	0.200000	0.010000	0.150000	100.000000	0.200000	1	1	0	1	1	0.045350	0
48	narrow0.5	0.200000	0.015000	0.150000	100.000000	0.200000	0	1	5	1	1	0.116880	0
49	pink2	0.200000	0.015000	0.150000	100.000000	0.200000	0	1	20	1	1	0.109430	0
50	narrow3	0.200000	0.050000	0.950000	100.000000	0.200000	0	0	6	0	1	0.144410	0
51	none	0.200000	0.010000	0.950000	100.000000	0.200000	0	0	18	0	1	0.120820	0
52	narrow0.5	0.200000	0.015000	0.150000	100.000000	0.200000	0	0	34	0	1	0.093530	0
53	narrow0.5	0.200000	0.015000	0.150000	100.000000	0.200000	1	1	30	1	1	0.079230	0
54	narrow9	0.200000	0.020000	0.950000	100.000000	0.200000	0	0	16	0	1	0.084060	0
55	narrow3	0.200000	0.050000	0.950000	100.000000	0.200000	1	1	11	1	1	0.072970	0
56	pink1	0.200000	0.030000	0.048000	100.000000	0.200000	0	1	30	1	1	0.096490	0
57	pink1	0.200000	0.030000	0.150000	100.000000	0.200000	1	1	11	1	1	0.059250	0
58	pink2	0.200000	0.020000	0.950000	100.000000	0.200000	1	1	19	1	1	0.115580	0
59	none	0.200000	0.010000	0.150000	100.000000	0.200000	0	0	32	0	1	0.066850	0
60	narrow0.5	0.200000	0.015000	0.950000	100.000000	0.200000	1	0	9	0	1	0.091370	0
61	pink1	0.200000	0.030000	0.048000	100.000000	0.200000	1	0	38	0	1	0.070810	0
62	narrow9	0.200000	0.020000	0.950000	100.000000	0.200000	1	0	39	0	1	0.062770	0
63	pink1	0.200000	0.030000	0.048000	100.000000	0.200000	1	1	8	1	1	0.113560	0
64	narrow0.5	0.200000	0.015000	0.150000	100.000000	0.200000	0	0	39	0	1	0.080080	0
65	narrow9	0.200000	0.030000	0.048000	100.000000	0.200000	0	1	18	1	1	0.083010	0
66	pink2	0.200000	0.015000	0.048000	100.000000	0.200000	1	1	16	1	1	0.117340	0
67	none	0.200000	0.010000	0.950000	100.000000	0.200000	1	0	32	0	1	0.110740	0
68	none	0.200000	0.010000	0.150000	100.000000	0.200000	0	0	18	0	1	0.140250	0
69	pink2	0.200000	0.015000	0.048000	100.000000	0.200000	0	0	37	0	1	0.134610	0
70	pink1	0.200000	0.030000	0.150000	100.000000	0.200000	0	0	3	0	1	0.061410	0
71	white	0.200000	0.020000	0.950000	100.000000	0.200000	0	1	6	1	1	0.102870	0
72	pink1	0.200000	0.060000	0.950000	100.000000	0.200000	0	0	37	0	1	0.361410	0
73	pink1	0.200000	0.030000	0.048000	100.000000	0.200000	1	0	15	0	1	0.092880	0
74	narrow0.5	0.200000	0.015000	0.150000	100.000000	0.200000	0	1	14	1	1	0.033240	0
75	pink2	0.200000	0.015000	0.150000	100.000000	0.200000	1	1	34	1	1	0.017120	0
76	pink2	0.200000	0.015000	0.048000	100.000000	0.200000	0	0	27	0	1	0.094790	0
77	pink2	0.200000	0.020000	0.950000	100.000000	0.200000	0	0	33	0	1	0.148330	0
78	narrow3	0.200000	0.050000	0.950000	100.000000	0.200000	1	1	30	1	1	0.021270	0
79	narrow9	0.200000	0.030000	0.048000	100.000000	0.200000	0	0	22	0	1	0.134110	0
80	white	0.200000	0.020000	0.950000	100.000000	0.200000	1	0	38	0	1	0.148320	0
81	none	0.200000	0.010000	0.048000	100.000000	0.200000	1	0	29	0	1	0.071620	0
82	pink1	0.200000	0.060000	0.950000	100.000000	0.200000	0	0	20	0	1	0.061670	0
83	narrow3	0.200000	0.025000	0.150000	100.000000	0.200000	1	1	18	1	1	0.050980	0
84	narrow3	0.200000	0.020000	0.048000	100.000000	0.200000	0	0	16	0	1	0.114170	0
85	pink2	0.200000	0.015000	0.048000	100.000000	0.200000	0	0	25	0	1	0.080230	0
86	none	0.200000	0.010000	0.048000	100.000000	0.200000	1	0	36	0	1	0.096000	0
87	narrow0.5	0.200000	0.015000	0.150000	100.000000	0.200000	0	1	3	1	1	0.066690	0
88	none	0.200000	0.010000	0.048000	100.000000	0.200000	1	1	27	1	1	0.083130	0
89	narrow9	0.200000	0.020000	0.950000	100.000000	0.200000	1	1	35	1	1	0.026900	0
trial	noise	noise_contrast	edge_contrast	edge_width	mean_lum	stim_time	rotID	transID	maskID	resp	correct	resptime	dropframes
0	none	0.200000	0.010000	0.950000	100.000000	0.500000	1	0	25	0	1	5.935290	0
1	white	0.200000	0.030000	0.048000	100.000000	0.500000	1	0	4	0	1	0.075460	0
2	white	0.200000	0.030000	0.048000	100.000000	0.500000	0	0	11	0	1	0.211590	0
3	narrow9	0.200000	0.015000	0.150000	100.000000	0.500000	1	0	39	0	1	0.468030	0
4	narrow9	0.200000	0.030000	0.048000	100.000000	0.500000	0	0	24	0	1	0.576440	0
5	white	0.200000	0.020000	0.950000	100.000000	0.500000	0	0	15	0	1	0.348710	0
6	narrow0.5	0.200000	0.015000	0.950000	100.000000	0.500000	0	0	28	0	1	0.374590	0
7	pink1	0.200000	0.060000	0.950000	100.000000	0.500000	0	1	20	1	1	0.378090	0
8	white	0.200000	0.030000	0.048000	100.000000	0.500000	1	1	20	1	1	0.205830	0
9	pink2	0.200000	0.015000	0.048000	100.000000	0.500000	1	1	11	1	1	0.139700	0
10	pink1	0.200000	0.030000	0.150000	100.000000	0.500000	1	0	7	0	1	0.038490	0
11	narrow3	0.200000	0.025000	0.150000	100.000000	0.500000	0	0	11	0	1	0.017900	0
12	none	0.200000	0.010000	0.150000	100.000000	0.500000	0	0	16	0	1	0.047710	0
13	pink2	0.200000	0.020000	0.950000	100.000000	0.500000	0	1	24	1	1	0.054150	0
14	narrow9	0.200000	0.015000	0.150000	100.000000	0.500000	1	0	9	0	1	0.229780	0
15	narrow9	0.200000	0.015000	0.150000	100.000000	0.200000	1	1	37	1	1	0.417660	0
16	white	0.200000	0.020000	0.950000	100.000000	0.200000	0	0	23	0	1	0.466520	0
17	white	0.200000	0.020000	0.150000	100.000000	0.200000	0	0	0	0	1	0.371380	0
18	pink1	0.200000	0.030000	0.150000	100.000000	0.200000	1	1	36	1	1	0.429370	0
19	narrow3	0.200000	0.050000	0.950000	100.000000	0.200000	0	1	13	1	1	0.260200	0
20	pink2	0.200000	0.020000	0.950000	100.000000	0.200000	0	0	19	0	1	0.089040	0
21	narrow9	0.200000	0.030000	0.048000	100.000000	0.200000	0	0	17	0	1	0.235010	0
22	narrow3	0.200000	0.025000	0.150000	100.000000	0.200000	0	0	28	0	1	0.167890	0
23	pink1	0.200000	0.060000	0.950000	100.000000	0.200000	0	0	0	0	1	0.174600	0
24	narrow9	0.200000	0.020000	0.950000	100.000000	0.200000	0	1	30	1	1	0.169350	0
25	narrow9	0.200000	0.030000	0.048000	100.000000	0.200000	0	0	29	0	1	0.750080	0
trial	noise	noise_contrast	edge_contrast	edge_width	mean_lum	stim_time	rotID	transID	maskID	resp	correct	resptime	dropframes
0	none	0.200000	0.010000	0.950000	100.000000	0.500000	0	0	19	0	1	0.300160	0
1	white	0.200000	0.030000	0.048000	100.000000	0.500000	1	1	26	1	1	1.087890	0
2	white	0.200000	0.030000	0.048000	100.000000	0.500000	0	0	26	0	1	0.542440	0
3	narrow9	0.200000	0.015000	0.150000	100.000000	0.500000	1	0	30	0	1	1.298770	0
4	narrow9	0.200000	0.030000	0.048000	100.000000	0.500000	1	0	17	0	1	0.722310	0
5	white	0.200000	0.020000	0.950000	100.000000	0.500000	0	1	4	1	1	0.264980	0
trial	noise	noise_contrast	edge_contrast	edge_width	mean_lum	stim_time	rotID	transID	maskID	resp	correct	resptime	dropframes
0	none	0.200000	0.010000	0.950000	100.000000	0.500000	1	1	24	1	1	0.488390	0
1	white	0.200000	0.030000	0.048000	100.000000	0.500000	0	0	3	0	1	0.198720	0
2	white	0.200000	0.030000	0.048000	100.000000	0.500000	1	0	15	0	1	0.078860	0
3	narrow9	0.200000	0.015000	0.150000	100.000000	0.500000	0	0	30	0	1	0.162210	0
4	narrow9	0.200000	0.030000	0.048000	100.000000	0.500000	1	0	16	0	1	0.154940	0
5	white	0.200000	0.020000	0.950000	100.000000	0.500000	0	0	5	0	1	0.283170	0
6	narrow0.5	0.200000	0.015000	0.950000	100.000000	0.500000	0	0	2	0	1	0.161870	0
7	pink1	0.200000	0.060000	0.950000	100.000000	0.500000	0	0	21	0	1	0.888730	0
8	white	0.200000	0.030000	0.048000	100.000000	0.500000	1	1	39	1	1	0.189830	0
9	pink2	0.200000	0.015000	0.048000	100.000000	0.500000	0	1	20	1	1	0.171740	0
10	pink1	0.200000	0.030000	0.150000	100.000000	0.500000	0	1	5	1	1	0.794480	0
11	narrow3	0.200000	0.025000	0.150000	100.000000	0.500000	1	0	5	0	1	0.350460	0
12	none	0.200000	0.010000	0.150000	100.000000	0.500000	1	0	14	0	1	0.218630	0
13	pink2	0.200000	0.020000	0.950000	100.000000	0.500000	0	0	19	0	1	0.365360	0
14	narrow9	0.200000	0.015000	0.150000	100.000000	0.500000	0	1	6	1	1	0.259180	0
15	narrow9	0.200000	0.015000	0.150000	100.000000	0.200000	1	1	21	1	1	0.606510	0
16	white	0.200000	0.020000	0.950000	100.000000	0.200000	0	0	11	0	1	0.335120	0
17	white	0.200000	0.020000	0.150000	100.000000	0.200000	0	1	16	1	1	0.045240	0
18	pink1	0.200000	0.030000	0.150000	100.000000	0.200000	0	1	39	1	1	0.203890	0
19	narrow3	0.200000	0.050000	0.950000	100.000000	0.200000	0	1	5	1	1	0.161180	0
20	pink2	0.200000	0.020000	0.950000	100.000000	0.200000	1	0	1	0	1	0.126060	0
21	narrow9	0.200000	0.030000	0.048000	100.000000	0.200000	1	0	20	0	1	0.222570	0
22	narrow3	0.200000	0.025000	0.150000	100.000000	0.200000	1	1	7	1	1	0.125050	0
23	pink1	0.200000	0.060000	0.950000	100.000000	0.200000	0	1	29	1	1	0.235450	0
24	narrow9	0.200000	0.020000	0.950000	100.000000	0.200000	1	0	16	0	1	0.236300	0
25	narrow9	0.200000	0.030000	0.048000	100.000000	0.200000	0	1	39	1	1	0.065780	0
26	narrow9	0.200000	0.030000	0.048000	100.000000	0.200000	0	0	8	0	1	0.102040	0
27	white	0.200000	0.020000	0.950000	100.000000	0.200000	1	1	5	1	1	0.047040	0
28	none	0.200000	0.010000	0.150000	100.000000	0.200000	0	1	30	1	1	0.208270	0
