trial	noise	noise_contrast	edge_contrast	edge_width	mean_lum	stim_time	rotID	transID	maskID	resp	correct	resptime	dropframes
0	none	0.200000	0.010000	0.150000	100.000000	0.500000	0	0	39	0	1	0.124010	0
1	narrow9	0.200000	0.015000	0.150000	100.000000	0.500000	1	1	16	1	1	0.040650	0
2	pink2	0.200000	0.015000	0.048000	100.000000	0.500000	1	0	19	0	1	0.040080	0
3	pink2	0.200000	0.020000	0.950000	100.000000	0.500000	0	0	30	0	1	0.092270	0
4	narrow0.5	0.200000	0.015000	0.950000	100.000000	0.500000	1	1	16	1	1	0.038310	0
5	narrow0.5	0.200000	0.010000	0.048000	100.000000	0.500000	1	1	19	1	1	0.062410	0
6	none	0.200000	0.010000	0.950000	100.000000	0.500000	1	1	34	1	1	0.084040	0
7	narrow9	0.200000	0.015000	0.150000	100.000000	0.500000	0	1	34	1	1	0.049750	0
8	narrow3	0.200000	0.050000	0.950000	100.000000	0.500000	1	0	7	0	1	0.071630	0
9	pink1	0.200000	0.060000	0.950000	100.000000	0.500000	0	1	7	1	1	0.001720	0
10	narrow0.5	0.200000	0.010000	0.048000	100.000000	0.500000	0	0	28	0	1	0.040950	0
11	narrow3	0.200000	0.025000	0.150000	100.000000	0.500000	0	1	13	1	1	0.367970	0
12	narrow3	0.200000	0.020000	0.048000	100.000000	0.500000	1	0	14	0	1	0.169970	0
13	white	0.200000	0.030000	0.048000	100.000000	0.500000	1	1	12	1	1	0.098980	0
14	narrow0.5	0.200000	0.015000	0.150000	100.000000	0.500000	1	0	4	0	1	0.087470	0
15	none	0.200000	0.010000	0.048000	100.000000	0.200000	1	1	24	1	1	0.189210	0
16	pink2	0.200000	0.015000	0.048000	100.000000	0.200000	0	1	12	1	1	0.134130	0
17	narrow3	0.200000	0.050000	0.950000	100.000000	0.200000	1	1	24	1	1	0.139250	0
18	narrow3	0.200000	0.050000	0.950000	100.000000	0.200000	0	0	19	0	1	0.109720	0
19	narrow9	0.200000	0.030000	0.048000	100.000000	0.200000	1	1	33	1	1	0.108540	0
20	pink1	0.200000	0.060000	0.950000	100.000000	0.200000	0	0	9	0	1	0.099000	0
21	pink2	0.200000	0.020000	0.950000	100.000000	0.200000	0	0	0	0	1	0.179810	0
22	pink2	0.200000	0.015000	0.048000	100.000000	0.200000	1	1	13	1	1	0.149800	0
23	pink2	0.200000	0.015000	0.150000	100.000000	0.200000	1	1	12	1	1	0.118180	0
24	none	0.200000	0.010000	0.048000	100.000000	0.200000	1	0	32	0	1	0.082450	0
25	narrow3	0.200000	0.050000	0.950000	100.000000	0.200000	0	1	38	1	1	0.078080	0
26	none	0.200000	0.010000	0.950000	100.000000	0.200000	0	0	20	0	1	0.107900	0
27	narrow3	0.200000	0.025000	0.150000	100.000000	0.200000	0	1	36	1	1	0.087670	0
28	narrow0.5	0.200000	0.010000	0.048000	100.000000	0.200000	1	0	18	0	1	0.063600	0
29	narrow0.5	0.200000	0.010000	0.048000	100.000000	0.200000	1	0	15	0	1	0.065890	0
30	narrow9	0.200000	0.030000	0.048000	100.000000	0.200000	0	1	32	1	1	0.091150	0
31	narrow0.5	0.200000	0.015000	0.150000	100.000000	0.200000	0	0	19	0	1	0.065750	0
32	none	0.200000	0.010000	0.150000	100.000000	0.200000	1	0	15	0	1	0.118110	0
33	pink2	0.200000	0.015000	0.048000	100.000000	0.200000	0	0	8	0	1	0.104570	0
34	narrow3	0.200000	0.050000	0.950000	100.000000	0.200000	0	0	12	0	1	0.065930	0
35	pink2	0.200000	0.015000	0.150000	100.000000	0.200000	1	0	9	0	1	0.041500	0
36	narrow0.5	0.200000	0.015000	0.950000	100.000000	0.200000	1	0	23	0	1	0.166680	0
37	white	0.200000	0.030000	0.048000	100.000000	0.200000	1	1	18	1	1	0.064000	0
38	narrow9	0.200000	0.020000	0.950000	100.000000	0.200000	0	0	28	0	1	0.067310	0
39	narrow0.5	0.200000	0.015000	0.150000	100.000000	0.200000	0	0	19	0	1	0.101860	0
40	narrow0.5	0.200000	0.015000	0.950000	100.000000	0.200000	1	1	24	1	1	0.097030	0
41	white	0.200000	0.020000	0.150000	100.000000	0.200000	0	0	22	0	1	0.099800	0
42	narrow0.5	0.200000	0.015000	0.950000	100.000000	0.200000	0	1	39	1	1	0.061870	0
43	narrow9	0.200000	0.015000	0.150000	100.000000	0.200000	1	0	16	0	1	0.059450	0
44	narrow0.5	0.200000	0.015000	0.150000	100.000000	0.200000	1	0	20	0	1	0.076500	0
45	narrow9	0.200000	0.030000	0.048000	100.000000	0.200000	0	1	1	1	1	0.064910	0
46	narrow0.5	0.200000	0.015000	0.950000	100.000000	0.200000	0	1	0	1	1	0.062760	0
47	pink1	0.200000	0.060000	0.950000	100.000000	0.200000	0	0	8	0	1	0.081300	0
48	pink1	0.200000	0.030000	0.150000	100.000000	0.200000	0	1	12	1	1	0.075620	0
49	white	0.200000	0.030000	0.048000	100.000000	0.200000	1	1	16	1	1	0.093720	0
50	white	0.200000	0.020000	0.150000	100.000000	0.200000	0	1	31	1	1	0.123170	0
51	white	0.200000	0.020000	0.150000	100.000000	0.200000	0	0	13	0	1	0.102100	0
52	none	0.200000	0.010000	0.950000	100.000000	0.200000	1	1	6	1	1	0.112000	0
53	narrow0.5	0.200000	0.015000	0.150000	100.000000	0.200000	1	1	11	1	1	0.069940	0
54	none	0.200000	0.010000	0.048000	100.000000	0.200000	1	1	23	1	1	0.051050	0
55	pink1	0.200000	0.030000	0.150000	100.000000	0.200000	1	1	9	1	1	0.029890	0
56	narrow9	0.200000	0.020000	0.950000	100.000000	0.200000	0	1	36	1	1	0.066000	0
57	pink2	0.200000	0.015000	0.150000	100.000000	0.200000	1	1	8	1	1	0.085570	0
58	none	0.200000	0.010000	0.048000	100.000000	0.200000	0	0	10	0	1	0.081970	0
59	white	0.200000	0.030000	0.048000	100.000000	0.200000	0	0	32	0	1	0.094400	0
