trial	noise	noise_contrast	edge_contrast	edge_width	mean_lum	stim_time	rotID	transID	maskID	resp	correct	resptime	dropframes
0	pink1	0.200000	0.030000	0.150000	100.000000	0.500000	0	1	20	1	1	0.557420	0
1	pink1	0.200000	0.060000	0.950000	100.000000	0.500000	1	0	26	0	1	0.215730	0
2	pink1	0.200000	0.060000	0.950000	100.000000	0.500000	1	1	32	1	1	0.377710	0
3	narrow9	0.200000	0.020000	0.950000	100.000000	0.500000	1	0	21	0	1	0.228560	0
4	narrow9	0.200000	0.015000	0.150000	100.000000	0.500000	1	1	14	1	1	0.022540	0
5	pink2	0.200000	0.015000	0.048000	100.000000	0.500000	0	0	35	0	1	0.293420	0
6	pink1	0.200000	0.030000	0.150000	100.000000	0.500000	0	0	30	0	1	0.827240	0
7	pink2	0.200000	0.015000	0.048000	100.000000	0.500000	0	0	28	0	1	0.209080	0
8	narrow0.5	0.200000	0.015000	0.950000	100.000000	0.500000	1	0	29	0	1	0.122680	0
9	narrow9	0.200000	0.030000	0.048000	100.000000	0.500000	0	1	6	1	1	0.024950	0
10	narrow9	0.200000	0.015000	0.150000	100.000000	0.500000	1	1	17	1	1	0.008160	0
11	narrow0.5	0.200000	0.010000	0.048000	100.000000	0.500000	0	1	17	1	1	0.609080	0
12	none	0.200000	0.010000	0.950000	100.000000	0.500000	0	0	22	0	1	0.226630	0
13	pink2	0.200000	0.015000	0.048000	100.000000	0.500000	1	0	37	0	1	0.315260	0
14	narrow3	0.200000	0.025000	0.150000	100.000000	0.500000	0	0	14	0	1	0.223660	0
15	pink1	0.200000	0.060000	0.950000	100.000000	0.200000	1	0	12	0	1	0.282110	0
16	none	0.200000	0.010000	0.950000	100.000000	0.200000	1	1	23	1	1	0.310140	0
17	pink1	0.200000	0.030000	0.150000	100.000000	0.200000	0	0	35	0	1	0.114350	0
18	pink2	0.200000	0.020000	0.950000	100.000000	0.200000	0	0	22	0	1	0.156800	0
19	narrow3	0.200000	0.025000	0.150000	100.000000	0.200000	1	0	30	0	1	0.076100	0
20	narrow0.5	0.200000	0.010000	0.048000	100.000000	0.200000	1	0	11	0	1	0.061620	0
21	pink1	0.200000	0.060000	0.950000	100.000000	0.200000	0	1	13	1	1	0.064890	0
22	narrow0.5	0.200000	0.015000	0.950000	100.000000	0.200000	1	0	17	0	1	0.069310	0
23	narrow9	0.200000	0.030000	0.048000	100.000000	0.200000	1	1	16	1	1	0.098840	0
24	pink2	0.200000	0.015000	0.048000	100.000000	0.200000	1	0	6	0	1	0.050130	0
25	pink2	0.200000	0.015000	0.150000	100.000000	0.200000	1	1	21	1	1	0.165560	0
26	pink2	0.200000	0.015000	0.048000	100.000000	0.200000	0	1	3	1	1	0.083040	0
27	narrow3	0.200000	0.020000	0.048000	100.000000	0.200000	1	1	19	1	1	0.104700	0
28	none	0.200000	0.010000	0.048000	100.000000	0.200000	0	0	38	0	1	0.081110	0
29	pink2	0.200000	0.015000	0.150000	100.000000	0.200000	1	1	29	1	1	0.079920	0
30	narrow9	0.200000	0.020000	0.950000	100.000000	0.200000	0	0	19	0	1	-0.001680	0
31	none	0.200000	0.010000	0.048000	100.000000	0.200000	1	1	32	1	1	0.022590	0
32	none	0.200000	0.010000	0.150000	100.000000	0.200000	0	0	6	0	1	0.071720	0
33	white	0.200000	0.020000	0.950000	100.000000	0.200000	0	1	39	1	1	0.045470	0
34	pink2	0.200000	0.015000	0.048000	100.000000	0.200000	0	1	23	1	1	0.338290	0
35	narrow0.5	0.200000	0.015000	0.150000	100.000000	0.200000	1	0	0	0	1	0.076610	0
36	narrow0.5	0.200000	0.010000	0.048000	100.000000	0.200000	0	0	33	0	1	0.081360	0
37	white	0.200000	0.030000	0.048000	100.000000	0.200000	0	0	13	0	1	0.154600	0
38	none	0.200000	0.010000	0.150000	100.000000	0.200000	1	0	31	0	1	0.113030	0
39	narrow3	0.200000	0.025000	0.150000	100.000000	0.200000	1	1	19	1	1	0.070470	0
40	narrow9	0.200000	0.020000	0.950000	100.000000	0.200000	1	0	9	0	1	0.097960	0
41	white	0.200000	0.030000	0.048000	100.000000	0.200000	0	1	21	1	1	0.016020	0
42	pink2	0.200000	0.015000	0.150000	100.000000	0.200000	1	0	13	0	1	0.061900	0
43	pink1	0.200000	0.030000	0.150000	100.000000	0.200000	0	1	33	1	1	0.209560	0
44	none	0.200000	0.010000	0.950000	100.000000	0.200000	1	1	30	1	1	0.174740	0
45	narrow3	0.200000	0.020000	0.048000	100.000000	0.200000	1	0	8	0	1	0.095370	0
46	narrow0.5	0.200000	0.015000	0.150000	100.000000	0.200000	1	1	5	1	1	0.081700	0
47	none	0.200000	0.010000	0.048000	100.000000	0.200000	0	1	21	1	1	0.102870	0
48	narrow9	0.200000	0.030000	0.048000	100.000000	0.200000	0	1	39	1	1	0.138780	0
49	narrow3	0.200000	0.050000	0.950000	100.000000	0.200000	1	0	13	0	1	0.126150	0
50	white	0.200000	0.020000	0.150000	100.000000	0.200000	1	0	18	0	1	0.221160	0
51	narrow9	0.200000	0.020000	0.950000	100.000000	0.200000	1	1	4	1	1	0.109640	0
52	pink1	0.200000	0.060000	0.950000	100.000000	0.200000	1	1	6	1	1	0.110300	0
53	narrow3	0.200000	0.025000	0.150000	100.000000	0.200000	0	0	20	0	1	0.069560	0
54	narrow3	0.200000	0.050000	0.950000	100.000000	0.200000	1	1	20	1	1	0.406090	0
55	narrow0.5	0.200000	0.015000	0.150000	100.000000	0.200000	0	1	19	1	1	0.468860	0
56	none	0.200000	0.010000	0.950000	100.000000	0.200000	0	0	16	0	1	0.109240	0
57	none	0.200000	0.010000	0.950000	100.000000	0.200000	0	0	25	0	1	0.097270	0
58	pink2	0.200000	0.015000	0.048000	100.000000	0.200000	0	1	28	1	1	0.155690	0
59	none	0.200000	0.010000	0.150000	100.000000	0.200000	1	0	28	0	1	0.100530	0
