trial	noise	noise_contrast	edge_contrast	edge_width	mean_lum	stim_time	rotID	transID	maskID	resp	correct	resptime	dropframes
0	white	0.200000	0.007505	0.950000	100.000000	0.200000	0	1	19	0	0	1.565280	0
1	white	0.200000	0.000010	0.950000	100.000000	0.200000	1	1	12	0	0	0.543290	0
2	white	0.200000	0.011252	0.950000	100.000000	0.200000	1	0	13	1	0	0.215920	0
3	white	0.200000	0.011252	0.950000	100.000000	0.200000	0	0	16	0	1	0.261900	0
4	white	0.200000	0.003757	0.950000	100.000000	0.200000	1	0	5	1	0	0.215420	0
5	white	0.200000	0.000010	0.950000	100.000000	0.200000	1	1	26	0	0	0.733060	0
6	white	0.200000	0.000010	0.950000	100.000000	0.200000	1	1	28	0	0	0.686900	0
7	white	0.200000	0.003757	0.950000	100.000000	0.200000	1	1	39	0	0	0.267940	0
8	white	0.200000	0.007505	0.950000	100.000000	0.200000	0	1	5	1	1	0.703840	0
9	white	0.200000	0.007505	0.950000	100.000000	0.200000	0	1	6	1	1	0.107500	0
10	white	0.200000	0.011252	0.950000	100.000000	0.200000	0	1	30	1	1	0.262760	0
11	white	0.200000	0.000010	0.950000	100.000000	0.200000	0	1	7	1	1	1.266950	0
12	white	0.200000	0.015000	0.950000	100.000000	0.200000	0	1	37	1	1	0.107120	0
13	white	0.200000	0.011252	0.950000	100.000000	0.200000	0	0	14	0	1	0.135260	0
14	white	0.200000	0.011252	0.950000	100.000000	0.200000	1	0	11	0	1	1.321640	0
15	white	0.200000	0.007505	0.950000	100.000000	0.200000	1	1	33	1	1	0.079890	0
16	white	0.200000	0.003757	0.950000	100.000000	0.200000	0	1	11	0	0	0.464930	0
17	white	0.200000	0.011252	0.950000	100.000000	0.200000	1	1	13	1	1	0.087060	0
18	white	0.200000	0.015000	0.950000	100.000000	0.200000	1	1	16	1	1	0.065400	0
19	white	0.200000	0.015000	0.950000	100.000000	0.200000	1	0	19	0	1	0.091060	0
20	white	0.200000	0.000010	0.950000	100.000000	0.200000	0	0	4	0	1	0.158630	0
21	white	0.200000	0.011252	0.950000	100.000000	0.200000	1	0	28	0	1	0.348940	0
22	white	0.200000	0.015000	0.950000	100.000000	0.200000	1	1	31	1	1	0.165180	1
23	white	0.200000	0.003757	0.950000	100.000000	0.200000	1	0	35	0	1	0.937020	0
24	white	0.200000	0.015000	0.950000	100.000000	0.200000	1	1	24	1	1	0.056730	0
25	white	0.200000	0.011252	0.950000	100.000000	0.200000	0	1	24	1	1	0.308870	0
26	white	0.200000	0.003757	0.950000	100.000000	0.200000	0	0	32	0	1	0.259950	0
27	white	0.200000	0.007505	0.950000	100.000000	0.200000	0	0	29	0	1	0.464700	0
28	white	0.200000	0.003757	0.950000	100.000000	0.200000	1	1	32	0	0	1.028150	0
29	white	0.200000	0.000010	0.950000	100.000000	0.200000	0	1	25	0	0	0.607020	0
30	white	0.200000	0.000010	0.950000	100.000000	0.200000	1	1	0	0	0	0.324940	0
31	white	0.200000	0.011252	0.950000	100.000000	0.200000	1	1	0	1	1	0.124090	0
32	white	0.200000	0.003757	0.950000	100.000000	0.200000	1	1	38	0	0	0.495810	0
33	white	0.200000	0.003757	0.950000	100.000000	0.200000	1	0	38	0	1	0.878490	0
34	white	0.200000	0.000010	0.950000	100.000000	0.200000	0	1	15	0	0	0.483710	0
35	white	0.200000	0.000010	0.950000	100.000000	0.200000	0	1	15	0	0	1.257470	0
36	white	0.200000	0.015000	0.950000	100.000000	0.200000	0	1	7	1	1	0.041940	0
37	white	0.200000	0.015000	0.950000	100.000000	0.200000	0	0	9	0	1	0.116170	0
38	white	0.200000	0.003757	0.950000	100.000000	0.200000	1	0	14	0	1	0.441290	0
39	white	0.200000	0.015000	0.950000	100.000000	0.200000	0	1	30	1	1	0.062550	0
40	white	0.200000	0.011252	0.950000	100.000000	0.200000	0	0	1	0	1	0.160020	0
41	white	0.200000	0.003757	0.950000	100.000000	0.200000	1	1	24	0	0	0.558660	0
42	white	0.200000	0.007505	0.950000	100.000000	0.200000	0	0	18	0	1	0.540840	0
43	white	0.200000	0.000010	0.950000	100.000000	0.200000	1	1	12	0	0	0.357710	0
44	white	0.200000	0.000010	0.950000	100.000000	0.200000	0	0	16	1	0	0.193340	0
45	white	0.200000	0.007505	0.950000	100.000000	0.200000	1	0	20	0	1	0.169940	0
46	white	0.200000	0.015000	0.950000	100.000000	0.200000	0	1	16	1	1	0.054350	0
47	white	0.200000	0.000010	0.950000	100.000000	0.200000	1	0	8	0	1	0.350110	0
48	white	0.200000	0.015000	0.950000	100.000000	0.200000	0	1	6	1	1	0.067340	0
49	white	0.200000	0.011252	0.950000	100.000000	0.200000	1	1	19	1	1	0.557340	0
50	white	0.200000	0.003757	0.950000	100.000000	0.200000	1	1	12	1	1	0.371460	0
51	white	0.200000	0.000010	0.950000	100.000000	0.200000	1	0	18	0	1	0.521770	0
52	white	0.200000	0.007505	0.950000	100.000000	0.200000	0	1	22	1	1	0.187170	0
53	white	0.200000	0.011252	0.950000	100.000000	0.200000	1	0	3	0	1	0.237620	0
54	white	0.200000	0.015000	0.950000	100.000000	0.200000	0	0	23	0	1	0.173920	0
55	white	0.200000	0.011252	0.950000	100.000000	0.200000	0	1	33	1	1	0.136450	0
56	white	0.200000	0.003757	0.950000	100.000000	0.200000	1	0	13	0	1	0.818110	0
57	white	0.200000	0.011252	0.950000	100.000000	0.200000	0	1	3	1	1	0.058590	0
58	white	0.200000	0.003757	0.950000	100.000000	0.200000	0	0	9	0	1	0.428530	0
59	white	0.200000	0.007505	0.950000	100.000000	0.200000	0	0	17	0	1	0.382490	0
60	white	0.200000	0.011252	0.950000	100.000000	0.200000	1	1	27	1	1	0.208180	0
61	white	0.200000	0.003757	0.950000	100.000000	0.200000	0	0	30	0	1	0.384390	0
62	white	0.200000	0.000010	0.950000	100.000000	0.200000	0	0	12	0	1	0.434720	0
63	white	0.200000	0.015000	0.950000	100.000000	0.200000	1	1	1	1	1	0.094380	0
64	white	0.200000	0.011252	0.950000	100.000000	0.200000	0	0	28	0	1	0.515230	0
65	white	0.200000	0.003757	0.950000	100.000000	0.200000	0	0	28	0	1	1.731730	0
66	white	0.200000	0.003757	0.950000	100.000000	0.200000	1	1	31	1	1	0.530480	0
67	white	0.200000	0.015000	0.950000	100.000000	0.200000	0	0	12	0	1	0.121960	0
68	white	0.200000	0.007505	0.950000	100.000000	0.200000	1	0	9	0	1	0.760720	0
69	white	0.200000	0.003757	0.950000	100.000000	0.200000	0	1	25	0	0	1.033310	0
70	white	0.200000	0.007505	0.950000	100.000000	0.200000	0	0	6	0	1	0.277750	0
71	white	0.200000	0.000010	0.950000	100.000000	0.200000	1	1	20	0	0	0.614370	0
72	white	0.200000	0.015000	0.950000	100.000000	0.200000	1	1	39	1	1	0.054620	0
73	white	0.200000	0.007505	0.950000	100.000000	0.200000	0	1	22	1	1	0.173570	0
74	white	0.200000	0.007505	0.950000	100.000000	0.200000	0	0	33	0	1	0.437400	0
75	white	0.200000	0.011252	0.950000	100.000000	0.200000	0	1	16	1	1	0.075020	0
76	white	0.200000	0.007505	0.950000	100.000000	0.200000	1	1	32	1	1	0.413480	0
77	white	0.200000	0.003757	0.950000	100.000000	0.200000	0	1	2	1	1	0.467960	0
78	white	0.200000	0.003757	0.950000	100.000000	0.200000	1	1	10	1	1	0.535260	0
79	white	0.200000	0.000010	0.950000	100.000000	0.200000	1	0	32	1	0	1.120010	0
80	white	0.200000	0.015000	0.950000	100.000000	0.200000	1	0	35	0	1	0.195720	0
81	white	0.200000	0.007505	0.950000	100.000000	0.200000	0	1	5	1	1	0.260660	0
82	white	0.200000	0.015000	0.950000	100.000000	0.200000	1	0	11	0	1	0.436250	0
83	white	0.200000	0.007505	0.950000	100.000000	0.200000	1	1	32	1	1	0.388500	0
84	white	0.200000	0.000010	0.950000	100.000000	0.200000	1	1	21	0	0	0.233520	0
85	white	0.200000	0.011252	0.950000	100.000000	0.200000	0	0	24	0	1	0.177400	0
86	white	0.200000	0.011252	0.950000	100.000000	0.200000	1	1	22	1	1	0.935420	0
87	white	0.200000	0.000010	0.950000	100.000000	0.200000	1	0	34	1	0	0.825640	0
88	white	0.200000	0.015000	0.950000	100.000000	0.200000	0	1	8	1	1	0.155430	0
89	white	0.200000	0.000010	0.950000	100.000000	0.200000	1	0	30	0	1	0.810110	0
90	white	0.200000	0.015000	0.950000	100.000000	0.200000	0	1	22	1	1	0.002410	0
91	white	0.200000	0.007505	0.950000	100.000000	0.200000	1	0	25	0	1	0.629060	0
92	white	0.200000	0.011252	0.950000	100.000000	0.200000	1	0	8	0	1	0.519290	0
93	white	0.200000	0.003757	0.950000	100.000000	0.200000	0	1	19	1	1	0.387860	0
94	white	0.200000	0.007505	0.950000	100.000000	0.200000	1	1	7	1	1	0.248190	0
95	white	0.200000	0.015000	0.950000	100.000000	0.200000	0	1	20	1	1	0.113240	0
96	white	0.200000	0.007505	0.950000	100.000000	0.200000	0	0	36	0	1	0.463750	0
97	white	0.200000	0.000010	0.950000	100.000000	0.200000	0	1	24	1	1	0.974680	0
98	white	0.200000	0.007505	0.950000	100.000000	0.200000	1	1	19	1	1	1.374320	0
99	white	0.200000	0.015000	0.950000	100.000000	0.200000	0	0	21	0	1	0.062520	0
