trial	noise	noise_contrast	edge_contrast	edge_width	mean_lum	stim_time	rotID	transID	maskID	resp	correct	resptime	dropframes
0	narrow3	0.200000	0.015000	0.150000	100.000000	0.200000	0	1	14	1	1	0.452700	0
1	narrow3	0.200000	0.007505	0.150000	100.000000	0.200000	0	0	6	0	1	0.281450	0
2	narrow3	0.200000	0.003757	0.150000	100.000000	0.200000	1	0	29	0	1	0.651130	0
3	narrow3	0.200000	0.007505	0.150000	100.000000	0.200000	0	1	5	1	1	0.059120	0
4	narrow3	0.200000	0.003757	0.150000	100.000000	0.200000	0	1	6	1	1	0.299240	0
5	narrow3	0.200000	0.000010	0.150000	100.000000	0.200000	0	1	39	1	1	0.345770	0
6	narrow3	0.200000	0.000010	0.150000	100.000000	0.200000	0	1	39	1	1	0.362600	0
7	narrow3	0.200000	0.003757	0.150000	100.000000	0.200000	0	1	15	0	0	0.533380	0
8	narrow3	0.200000	0.011252	0.150000	100.000000	0.200000	0	1	5	1	1	0.155820	0
9	narrow3	0.200000	0.011252	0.150000	100.000000	0.200000	0	0	3	0	1	0.130560	0
10	narrow3	0.200000	0.000010	0.150000	100.000000	0.200000	0	1	4	0	0	1.306780	0
11	narrow3	0.200000	0.000010	0.150000	100.000000	0.200000	1	1	26	0	0	0.395200	0
12	narrow3	0.200000	0.007505	0.150000	100.000000	0.200000	1	1	20	1	1	0.123690	0
13	narrow3	0.200000	0.000010	0.150000	100.000000	0.200000	0	1	26	0	0	0.356310	0
14	narrow3	0.200000	0.007505	0.150000	100.000000	0.200000	1	0	32	0	1	0.165590	0
15	narrow3	0.200000	0.011252	0.150000	100.000000	0.200000	0	1	23	1	1	0.109560	0
16	narrow3	0.200000	0.003757	0.150000	100.000000	0.200000	0	0	33	0	1	0.296800	0
17	narrow3	0.200000	0.000010	0.150000	100.000000	0.200000	1	0	24	1	0	1.052850	0
18	narrow3	0.200000	0.015000	0.150000	100.000000	0.200000	0	0	11	0	1	0.062870	0
19	narrow3	0.200000	0.011252	0.150000	100.000000	0.200000	0	1	30	1	1	0.099810	0
20	narrow3	0.200000	0.007505	0.150000	100.000000	0.200000	1	1	25	1	1	0.098330	0
21	narrow3	0.200000	0.015000	0.150000	100.000000	0.200000	1	0	22	0	1	0.090720	0
22	narrow3	0.200000	0.015000	0.150000	100.000000	0.200000	1	0	25	0	1	0.064440	0
23	narrow3	0.200000	0.007505	0.150000	100.000000	0.200000	1	1	36	1	1	0.132040	0
24	narrow3	0.200000	0.000010	0.150000	100.000000	0.200000	0	0	9	0	1	0.650260	0
25	narrow3	0.200000	0.015000	0.150000	100.000000	0.200000	0	0	26	0	1	0.094250	0
26	narrow3	0.200000	0.011252	0.150000	100.000000	0.200000	1	1	3	1	1	0.077040	0
27	narrow3	0.200000	0.007505	0.150000	100.000000	0.200000	0	1	18	1	1	0.151020	0
28	narrow3	0.200000	0.015000	0.150000	100.000000	0.200000	1	0	20	0	1	0.050200	0
29	narrow3	0.200000	0.007505	0.150000	100.000000	0.200000	0	1	34	1	1	0.171460	0
30	narrow3	0.200000	0.015000	0.150000	100.000000	0.200000	1	0	2	0	1	0.064160	0
31	narrow3	0.200000	0.000010	0.150000	100.000000	0.200000	0	0	17	0	1	0.739420	0
32	narrow3	0.200000	0.011252	0.150000	100.000000	0.200000	0	0	2	0	1	0.097510	0
33	narrow3	0.200000	0.000010	0.150000	100.000000	0.200000	0	1	37	0	0	0.566150	0
34	narrow3	0.200000	0.015000	0.150000	100.000000	0.200000	1	1	38	1	1	0.025940	0
35	narrow3	0.200000	0.003757	0.150000	100.000000	0.200000	1	0	29	1	0	1.299270	0
36	narrow3	0.200000	0.007505	0.150000	100.000000	0.200000	1	1	17	1	1	0.174370	0
37	narrow3	0.200000	0.011252	0.150000	100.000000	0.200000	1	0	20	0	1	0.085480	0
38	narrow3	0.200000	0.003757	0.150000	100.000000	0.200000	0	1	33	1	1	0.298790	0
39	narrow3	0.200000	0.003757	0.150000	100.000000	0.200000	1	0	35	1	0	1.280350	0
40	narrow3	0.200000	0.007505	0.150000	100.000000	0.200000	0	0	36	0	1	0.085630	0
41	narrow3	0.200000	0.011252	0.150000	100.000000	0.200000	1	0	12	0	1	0.075410	0
42	narrow3	0.200000	0.015000	0.150000	100.000000	0.200000	0	1	38	1	1	0.106780	0
43	narrow3	0.200000	0.011252	0.150000	100.000000	0.200000	1	1	9	1	1	0.116020	0
44	narrow3	0.200000	0.000010	0.150000	100.000000	0.200000	0	1	22	1	1	0.251880	0
45	narrow3	0.200000	0.007505	0.150000	100.000000	0.200000	0	1	25	1	1	0.159610	0
46	narrow3	0.200000	0.007505	0.150000	100.000000	0.200000	1	1	19	1	1	0.085060	0
47	narrow3	0.200000	0.007505	0.150000	100.000000	0.200000	0	0	7	0	1	0.145110	0
48	narrow3	0.200000	0.015000	0.150000	100.000000	0.200000	1	1	20	1	1	0.053720	0
49	narrow3	0.200000	0.000010	0.150000	100.000000	0.200000	0	1	37	1	1	1.408530	0
50	narrow3	0.200000	0.003757	0.150000	100.000000	0.200000	0	0	16	0	1	0.352760	0
51	narrow3	0.200000	0.011252	0.150000	100.000000	0.200000	0	0	32	0	1	0.091350	0
52	narrow3	0.200000	0.015000	0.150000	100.000000	0.200000	1	0	13	0	1	0.096470	0
53	narrow3	0.200000	0.003757	0.150000	100.000000	0.200000	0	1	21	1	1	0.116770	0
54	narrow3	0.200000	0.011252	0.150000	100.000000	0.200000	1	1	21	1	1	0.111420	0
55	narrow3	0.200000	0.011252	0.150000	100.000000	0.200000	0	1	5	1	1	0.117140	0
56	narrow3	0.200000	0.011252	0.150000	100.000000	0.200000	1	0	9	0	1	0.107660	0
57	narrow3	0.200000	0.003757	0.150000	100.000000	0.200000	0	0	21	0	1	0.741080	0
58	narrow3	0.200000	0.003757	0.150000	100.000000	0.200000	1	1	33	1	1	0.237530	0
59	narrow3	0.200000	0.011252	0.150000	100.000000	0.200000	0	1	26	1	1	0.104300	0
60	narrow3	0.200000	0.000010	0.150000	100.000000	0.200000	1	1	10	0	0	0.948670	0
61	narrow3	0.200000	0.011252	0.150000	100.000000	0.200000	0	1	0	1	1	0.087970	0
62	narrow3	0.200000	0.003757	0.150000	100.000000	0.200000	0	1	26	1	1	0.446790	0
63	narrow3	0.200000	0.003757	0.150000	100.000000	0.200000	0	1	37	0	0	1.384460	0
64	narrow3	0.200000	0.015000	0.150000	100.000000	0.200000	0	0	1	0	1	0.146580	0
65	narrow3	0.200000	0.015000	0.150000	100.000000	0.200000	1	1	28	1	1	0.366960	0
66	narrow3	0.200000	0.007505	0.150000	100.000000	0.200000	1	1	0	1	1	0.113140	0
67	narrow3	0.200000	0.007505	0.150000	100.000000	0.200000	0	0	8	0	1	0.178220	0
68	narrow3	0.200000	0.003757	0.150000	100.000000	0.200000	1	0	36	0	1	0.492740	0
69	narrow3	0.200000	0.011252	0.150000	100.000000	0.200000	0	1	33	1	1	0.148140	0
70	narrow3	0.200000	0.000010	0.150000	100.000000	0.200000	1	0	32	0	1	0.526640	0
71	narrow3	0.200000	0.015000	0.150000	100.000000	0.200000	1	0	6	0	1	0.088580	0
72	narrow3	0.200000	0.000010	0.150000	100.000000	0.200000	0	1	37	0	0	0.522990	0
73	narrow3	0.200000	0.000010	0.150000	100.000000	0.200000	0	0	14	0	1	0.461350	0
74	narrow3	0.200000	0.000010	0.150000	100.000000	0.200000	0	0	3	0	1	0.800570	0
75	narrow3	0.200000	0.015000	0.150000	100.000000	0.200000	1	1	31	1	1	0.066900	0
76	narrow3	0.200000	0.003757	0.150000	100.000000	0.200000	1	1	27	1	1	0.691190	0
77	narrow3	0.200000	0.003757	0.150000	100.000000	0.200000	1	1	11	1	1	1.256660	0
78	narrow3	0.200000	0.015000	0.150000	100.000000	0.200000	1	1	27	1	1	0.083340	0
79	narrow3	0.200000	0.015000	0.150000	100.000000	0.200000	1	0	17	0	1	0.052390	0
80	narrow3	0.200000	0.000010	0.150000	100.000000	0.200000	1	1	23	0	0	0.862560	0
81	narrow3	0.200000	0.011252	0.150000	100.000000	0.200000	1	0	27	0	1	0.113980	0
82	narrow3	0.200000	0.007505	0.150000	100.000000	0.200000	0	0	17	0	1	0.111260	0
83	narrow3	0.200000	0.000010	0.150000	100.000000	0.200000	0	1	6	0	0	0.452160	0
84	narrow3	0.200000	0.007505	0.150000	100.000000	0.200000	1	1	10	1	1	0.108350	0
85	narrow3	0.200000	0.003757	0.150000	100.000000	0.200000	1	1	11	1	1	0.267100	0
86	narrow3	0.200000	0.000010	0.150000	100.000000	0.200000	0	0	34	1	0	0.922530	0
87	narrow3	0.200000	0.007505	0.150000	100.000000	0.200000	1	0	10	0	1	0.100490	1
88	narrow3	0.200000	0.003757	0.150000	100.000000	0.200000	0	0	13	0	1	0.327810	0
89	narrow3	0.200000	0.007505	0.150000	100.000000	0.200000	0	0	19	0	1	0.150770	0
90	narrow3	0.200000	0.007505	0.150000	100.000000	0.200000	0	0	37	0	1	0.163540	0
91	narrow3	0.200000	0.011252	0.150000	100.000000	0.200000	0	1	26	1	1	0.069270	0
92	narrow3	0.200000	0.003757	0.150000	100.000000	0.200000	0	0	21	0	1	0.595290	0
93	narrow3	0.200000	0.011252	0.150000	100.000000	0.200000	0	1	6	1	1	0.036780	0
94	narrow3	0.200000	0.000010	0.150000	100.000000	0.200000	1	0	24	1	0	0.430210	0
95	narrow3	0.200000	0.015000	0.150000	100.000000	0.200000	1	1	10	1	1	0.042690	0
96	narrow3	0.200000	0.015000	0.150000	100.000000	0.200000	1	0	16	0	1	0.066390	0
97	narrow3	0.200000	0.015000	0.150000	100.000000	0.200000	0	0	21	0	1	0.128420	0
98	narrow3	0.200000	0.003757	0.150000	100.000000	0.200000	0	0	23	0	1	1.277760	0
99	narrow3	0.200000	0.011252	0.150000	100.000000	0.200000	0	0	15	0	1	0.096130	0
