trial	noise	noise_contrast	edge_contrast	edge_width	mean_lum	stim_time	rotID	transID	maskID	resp	correct	resptime	dropframes
0	narrow0.5	0.200000	0.005627	0.950000	100.000000	0.200000	0	1	25	1	1	0.434050	0
1	narrow0.5	0.200000	0.001883	0.950000	100.000000	0.200000	1	0	29	0	1	0.619310	0
2	narrow0.5	0.200000	0.001883	0.950000	100.000000	0.200000	1	0	35	0	1	0.377980	0
3	narrow0.5	0.200000	0.003755	0.950000	100.000000	0.200000	1	0	20	0	1	0.149230	0
4	narrow0.5	0.200000	0.005627	0.950000	100.000000	0.200000	0	0	2	0	1	0.100330	0
5	narrow0.5	0.200000	0.001883	0.950000	100.000000	0.200000	1	1	5	0	0	0.635890	0
6	narrow0.5	0.200000	0.000010	0.950000	100.000000	0.200000	1	0	35	0	1	0.477560	0
7	narrow0.5	0.200000	0.007500	0.950000	100.000000	0.200000	1	1	15	1	1	0.161830	0
8	narrow0.5	0.200000	0.005627	0.950000	100.000000	0.200000	1	1	2	1	1	0.469030	0
9	narrow0.5	0.200000	0.001883	0.950000	100.000000	0.200000	0	0	2	0	1	0.596660	0
10	narrow0.5	0.200000	0.001883	0.950000	100.000000	0.200000	0	1	28	0	0	0.471950	0
11	narrow0.5	0.200000	0.007500	0.950000	100.000000	0.200000	1	0	10	0	1	0.134400	0
12	narrow0.5	0.200000	0.003755	0.950000	100.000000	0.200000	1	1	25	1	1	0.237930	0
13	narrow0.5	0.200000	0.000010	0.950000	100.000000	0.200000	0	1	39	1	1	0.717910	0
14	narrow0.5	0.200000	0.001883	0.950000	100.000000	0.200000	0	1	6	0	0	0.690470	0
15	narrow0.5	0.200000	0.000010	0.950000	100.000000	0.200000	1	0	10	0	1	0.488910	0
16	narrow0.5	0.200000	0.007500	0.950000	100.000000	0.200000	0	0	7	0	1	0.151810	0
17	narrow0.5	0.200000	0.003755	0.950000	100.000000	0.200000	0	1	24	1	1	0.320130	0
18	narrow0.5	0.200000	0.001883	0.950000	100.000000	0.200000	1	1	18	1	1	0.283690	0
19	narrow0.5	0.200000	0.007500	0.950000	100.000000	0.200000	0	1	8	1	1	0.100360	0
20	narrow0.5	0.200000	0.000010	0.950000	100.000000	0.200000	0	1	22	1	1	0.436950	0
21	narrow0.5	0.200000	0.003755	0.950000	100.000000	0.200000	0	0	3	0	1	0.148330	0
22	narrow0.5	0.200000	0.001883	0.950000	100.000000	0.200000	0	0	39	0	1	0.605000	0
23	narrow0.5	0.200000	0.007500	0.950000	100.000000	0.200000	0	1	17	1	1	0.131010	0
24	narrow0.5	0.200000	0.005627	0.950000	100.000000	0.200000	0	0	13	0	1	0.295850	0
25	narrow0.5	0.200000	0.003755	0.950000	100.000000	0.200000	0	0	5	0	1	0.158530	0
26	narrow0.5	0.200000	0.005627	0.950000	100.000000	0.200000	1	0	12	0	1	0.107960	0
27	narrow0.5	0.200000	0.007500	0.950000	100.000000	0.200000	0	1	33	1	1	0.112780	0
28	narrow0.5	0.200000	0.005627	0.950000	100.000000	0.200000	0	1	5	1	1	0.163600	0
29	narrow0.5	0.200000	0.007500	0.950000	100.000000	0.200000	0	1	15	1	1	0.088720	0
30	narrow0.5	0.200000	0.007500	0.950000	100.000000	0.200000	1	1	32	1	1	0.095730	0
31	narrow0.5	0.200000	0.000010	0.950000	100.000000	0.200000	1	1	39	0	0	0.270600	0
32	narrow0.5	0.200000	0.003755	0.950000	100.000000	0.200000	1	0	13	0	1	0.405950	0
33	narrow0.5	0.200000	0.005627	0.950000	100.000000	0.200000	0	0	6	0	1	0.126700	0
34	narrow0.5	0.200000	0.000010	0.950000	100.000000	0.200000	1	1	26	1	1	0.587270	0
35	narrow0.5	0.200000	0.007500	0.950000	100.000000	0.200000	1	0	37	0	1	0.076580	0
36	narrow0.5	0.200000	0.003755	0.950000	100.000000	0.200000	1	1	33	1	1	0.418590	0
37	narrow0.5	0.200000	0.005627	0.950000	100.000000	0.200000	0	1	21	1	1	0.125920	0
38	narrow0.5	0.200000	0.003755	0.950000	100.000000	0.200000	1	0	39	0	1	0.147580	0
39	narrow0.5	0.200000	0.000010	0.950000	100.000000	0.200000	0	0	0	1	0	1.220380	0
40	narrow0.5	0.200000	0.003755	0.950000	100.000000	0.200000	1	0	16	0	1	0.276270	0
41	narrow0.5	0.200000	0.000010	0.950000	100.000000	0.200000	0	0	16	0	1	0.546630	0
42	narrow0.5	0.200000	0.000010	0.950000	100.000000	0.200000	1	1	38	1	1	0.788120	0
43	narrow0.5	0.200000	0.005627	0.950000	100.000000	0.200000	0	0	11	0	1	0.067020	1
44	narrow0.5	0.200000	0.000010	0.950000	100.000000	0.200000	0	1	17	1	1	0.605430	0
45	narrow0.5	0.200000	0.005627	0.950000	100.000000	0.200000	1	0	8	0	1	0.100110	0
46	narrow0.5	0.200000	0.007500	0.950000	100.000000	0.200000	1	1	9	1	1	0.112400	0
47	narrow0.5	0.200000	0.003755	0.950000	100.000000	0.200000	0	1	8	1	1	0.159150	0
48	narrow0.5	0.200000	0.001883	0.950000	100.000000	0.200000	1	1	34	1	1	0.604670	0
49	narrow0.5	0.200000	0.007500	0.950000	100.000000	0.200000	0	1	4	1	1	0.345020	0
50	narrow0.5	0.200000	0.005627	0.950000	100.000000	0.200000	1	1	23	1	1	0.249100	0
51	narrow0.5	0.200000	0.001883	0.950000	100.000000	0.200000	0	1	34	1	1	0.248140	0
52	narrow0.5	0.200000	0.003755	0.950000	100.000000	0.200000	0	1	21	1	1	0.191360	0
53	narrow0.5	0.200000	0.001883	0.950000	100.000000	0.200000	1	1	35	0	0	0.752400	0
54	narrow0.5	0.200000	0.007500	0.950000	100.000000	0.200000	1	1	2	1	1	0.121520	0
55	narrow0.5	0.200000	0.000010	0.950000	100.000000	0.200000	1	0	9	0	1	1.026260	0
56	narrow0.5	0.200000	0.003755	0.950000	100.000000	0.200000	1	1	16	1	1	0.140820	0
57	narrow0.5	0.200000	0.003755	0.950000	100.000000	0.200000	0	1	18	1	1	0.465880	0
58	narrow0.5	0.200000	0.000010	0.950000	100.000000	0.200000	0	0	24	0	1	0.562500	0
59	narrow0.5	0.200000	0.005627	0.950000	100.000000	0.200000	1	0	10	0	1	0.197130	0
60	narrow0.5	0.200000	0.001883	0.950000	100.000000	0.200000	1	1	23	1	1	1.027980	0
61	narrow0.5	0.200000	0.005627	0.950000	100.000000	0.200000	0	0	23	0	1	0.089490	0
62	narrow0.5	0.200000	0.007500	0.950000	100.000000	0.200000	0	0	38	0	1	0.134740	0
63	narrow0.5	0.200000	0.001883	0.950000	100.000000	0.200000	1	1	20	0	0	1.018300	0
64	narrow0.5	0.200000	0.003755	0.950000	100.000000	0.200000	0	0	17	1	0	0.224170	0
65	narrow0.5	0.200000	0.000010	0.950000	100.000000	0.200000	1	0	1	1	0	0.623790	0
66	narrow0.5	0.200000	0.007500	0.950000	100.000000	0.200000	0	0	36	0	1	0.112570	0
67	narrow0.5	0.200000	0.000010	0.950000	100.000000	0.200000	1	1	32	0	0	0.701090	0
68	narrow0.5	0.200000	0.001883	0.950000	100.000000	0.200000	0	0	29	0	1	0.588910	0
69	narrow0.5	0.200000	0.000010	0.950000	100.000000	0.200000	0	1	31	1	1	0.287200	0
70	narrow0.5	0.200000	0.000010	0.950000	100.000000	0.200000	1	0	16	0	1	1.810710	0
71	narrow0.5	0.200000	0.005627	0.950000	100.000000	0.200000	1	1	27	1	1	0.191640	0
72	narrow0.5	0.200000	0.000010	0.950000	100.000000	0.200000	0	0	5	1	0	0.397130	0
73	narrow0.5	0.200000	0.001883	0.950000	100.000000	0.200000	0	1	21	1	1	1.437560	0
74	narrow0.5	0.200000	0.001883	0.950000	100.000000	0.200000	0	0	37	0	1	0.195720	0
75	narrow0.5	0.200000	0.007500	0.950000	100.000000	0.200000	1	0	8	0	1	0.073270	0
76	narrow0.5	0.200000	0.001883	0.950000	100.000000	0.200000	1	0	17	0	1	0.481750	0
77	narrow0.5	0.200000	0.003755	0.950000	100.000000	0.200000	1	0	0	0	1	0.161060	0
78	narrow0.5	0.200000	0.005627	0.950000	100.000000	0.200000	0	1	28	1	1	0.189990	0
79	narrow0.5	0.200000	0.000010	0.950000	100.000000	0.200000	0	1	7	0	0	0.733410	0
80	narrow0.5	0.200000	0.003755	0.950000	100.000000	0.200000	0	0	25	0	1	0.168200	0
81	narrow0.5	0.200000	0.003755	0.950000	100.000000	0.200000	1	0	16	0	1	0.132990	0
82	narrow0.5	0.200000	0.005627	0.950000	100.000000	0.200000	1	0	3	0	1	0.107390	0
83	narrow0.5	0.200000	0.007500	0.950000	100.000000	0.200000	0	1	28	1	1	0.153270	0
84	narrow0.5	0.200000	0.007500	0.950000	100.000000	0.200000	0	1	38	1	1	0.135790	0
85	narrow0.5	0.200000	0.007500	0.950000	100.000000	0.200000	1	0	27	0	1	0.333860	0
86	narrow0.5	0.200000	0.001883	0.950000	100.000000	0.200000	0	1	15	1	1	0.603680	0
87	narrow0.5	0.200000	0.005627	0.950000	100.000000	0.200000	1	0	0	0	1	0.104480	0
88	narrow0.5	0.200000	0.007500	0.950000	100.000000	0.200000	0	1	18	1	1	0.112750	0
89	narrow0.5	0.200000	0.003755	0.950000	100.000000	0.200000	0	1	35	1	1	0.499570	0
90	narrow0.5	0.200000	0.001883	0.950000	100.000000	0.200000	1	0	9	0	1	0.395460	0
91	narrow0.5	0.200000	0.000010	0.950000	100.000000	0.200000	0	0	20	1	0	0.896660	0
92	narrow0.5	0.200000	0.000010	0.950000	100.000000	0.200000	1	0	1	0	1	0.793500	0
93	narrow0.5	0.200000	0.005627	0.950000	100.000000	0.200000	0	1	38	1	1	0.063620	0
94	narrow0.5	0.200000	0.007500	0.950000	100.000000	0.200000	1	1	7	1	1	0.086240	0
95	narrow0.5	0.200000	0.003755	0.950000	100.000000	0.200000	1	0	37	0	1	0.152830	0
96	narrow0.5	0.200000	0.005627	0.950000	100.000000	0.200000	0	0	0	0	1	0.338690	0
97	narrow0.5	0.200000	0.003755	0.950000	100.000000	0.200000	0	1	0	1	1	0.222740	0
98	narrow0.5	0.200000	0.001883	0.950000	100.000000	0.200000	1	1	22	1	1	0.841660	0
99	narrow0.5	0.200000	0.005627	0.950000	100.000000	0.200000	1	0	37	0	1	0.083550	0
