trial	noise	noise_contrast	edge_contrast	edge_width	mean_lum	stim_time	rotID	transID	maskID	resp	correct	resptime	dropframes
0	white	0.200000	0.011252	0.048000	100.000000	0.200000	1	1	2	1	1	0.095560	0
1	white	0.200000	0.000010	0.048000	100.000000	0.200000	1	0	2	0	1	0.173220	0
2	white	0.200000	0.007505	0.048000	100.000000	0.200000	0	0	24	0	1	0.071280	0
3	white	0.200000	0.011252	0.048000	100.000000	0.200000	1	0	36	0	1	0.137060	0
4	white	0.200000	0.011252	0.048000	100.000000	0.200000	0	1	27	1	1	0.098050	0
5	white	0.200000	0.011252	0.048000	100.000000	0.200000	1	0	32	0	1	0.140850	0
6	white	0.200000	0.000010	0.048000	100.000000	0.200000	1	0	19	0	1	0.108990	0
7	white	0.200000	0.007505	0.048000	100.000000	0.200000	1	1	12	1	1	0.043440	0
8	white	0.200000	0.003757	0.048000	100.000000	0.200000	1	0	1	1	0	0.174510	0
9	white	0.200000	0.015000	0.048000	100.000000	0.200000	1	1	13	1	1	0.033950	0
10	white	0.200000	0.000010	0.048000	100.000000	0.200000	1	1	20	1	1	0.144390	0
11	white	0.200000	0.000010	0.048000	100.000000	0.200000	0	0	18	1	0	0.290080	0
12	white	0.200000	0.015000	0.048000	100.000000	0.200000	0	0	31	0	1	0.127500	0
13	white	0.200000	0.000010	0.048000	100.000000	0.200000	0	1	4	0	0	0.157610	0
14	white	0.200000	0.011252	0.048000	100.000000	0.200000	0	1	18	1	1	0.196940	0
15	white	0.200000	0.000010	0.048000	100.000000	0.200000	0	0	1	1	0	0.118000	0
16	white	0.200000	0.011252	0.048000	100.000000	0.200000	0	0	29	0	1	0.141770	0
17	white	0.200000	0.000010	0.048000	100.000000	0.200000	0	0	1	1	0	0.233860	0
18	white	0.200000	0.007505	0.048000	100.000000	0.200000	0	1	23	1	1	0.072950	0
19	white	0.200000	0.007505	0.048000	100.000000	0.200000	1	1	35	1	1	0.040500	0
20	white	0.200000	0.007505	0.048000	100.000000	0.200000	0	1	29	1	1	0.095590	0
21	white	0.200000	0.007505	0.048000	100.000000	0.200000	0	0	33	0	1	0.372490	0
22	white	0.200000	0.015000	0.048000	100.000000	0.200000	0	1	7	1	1	0.065550	0
23	white	0.200000	0.003757	0.048000	100.000000	0.200000	1	0	8	1	0	0.167360	0
24	white	0.200000	0.003757	0.048000	100.000000	0.200000	0	1	31	1	1	0.043970	0
25	white	0.200000	0.015000	0.048000	100.000000	0.200000	1	0	5	0	1	0.147990	0
26	white	0.200000	0.003757	0.048000	100.000000	0.200000	1	0	5	0	1	0.227520	0
27	white	0.200000	0.007505	0.048000	100.000000	0.200000	1	0	14	0	1	0.168800	0
28	white	0.200000	0.007505	0.048000	100.000000	0.200000	1	1	27	1	1	0.105390	0
29	white	0.200000	0.011252	0.048000	100.000000	0.200000	1	1	15	1	1	0.042170	0
30	white	0.200000	0.000010	0.048000	100.000000	0.200000	1	1	31	1	1	0.097860	0
31	white	0.200000	0.003757	0.048000	100.000000	0.200000	1	1	15	1	1	0.127680	0
32	white	0.200000	0.003757	0.048000	100.000000	0.200000	1	1	9	1	1	0.133430	0
33	white	0.200000	0.007505	0.048000	100.000000	0.200000	0	0	4	0	1	0.149040	0
34	white	0.200000	0.000010	0.048000	100.000000	0.200000	1	0	27	0	1	0.224040	0
35	white	0.200000	0.000010	0.048000	100.000000	0.200000	1	0	34	0	1	0.105420	0
36	white	0.200000	0.007505	0.048000	100.000000	0.200000	1	0	11	0	1	0.433740	0
37	white	0.200000	0.003757	0.048000	100.000000	0.200000	0	1	3	1	1	0.142500	0
38	white	0.200000	0.000010	0.048000	100.000000	0.200000	0	1	36	1	1	0.253710	0
39	white	0.200000	0.000010	0.048000	100.000000	0.200000	1	0	9	1	0	0.118720	0
40	white	0.200000	0.007505	0.048000	100.000000	0.200000	0	1	2	1	1	0.096290	0
41	white	0.200000	0.003757	0.048000	100.000000	0.200000	1	1	20	1	1	0.171650	0
42	white	0.200000	0.003757	0.048000	100.000000	0.200000	0	1	26	1	1	0.099900	0
43	white	0.200000	0.015000	0.048000	100.000000	0.200000	1	1	19	1	1	0.027630	0
44	white	0.200000	0.007505	0.048000	100.000000	0.200000	0	0	15	0	1	0.133050	0
45	white	0.200000	0.000010	0.048000	100.000000	0.200000	0	0	26	0	1	0.113650	0
46	white	0.200000	0.000010	0.048000	100.000000	0.200000	1	1	34	1	1	0.123310	0
47	white	0.200000	0.015000	0.048000	100.000000	0.200000	0	0	0	0	1	0.076410	0
48	white	0.200000	0.000010	0.048000	100.000000	0.200000	1	1	8	0	0	0.391550	0
49	white	0.200000	0.003757	0.048000	100.000000	0.200000	0	1	39	1	1	0.175440	0
50	white	0.200000	0.007505	0.048000	100.000000	0.200000	1	0	25	0	1	0.076410	0
51	white	0.200000	0.000010	0.048000	100.000000	0.200000	1	1	27	1	1	0.107350	0
52	white	0.200000	0.007505	0.048000	100.000000	0.200000	0	0	28	1	0	0.013720	0
53	white	0.200000	0.015000	0.048000	100.000000	0.200000	0	0	31	0	1	0.051790	0
54	white	0.200000	0.003757	0.048000	100.000000	0.200000	0	0	11	0	1	0.109970	0
55	white	0.200000	0.000010	0.048000	100.000000	0.200000	0	0	10	1	0	0.019380	0
56	white	0.200000	0.000010	0.048000	100.000000	0.200000	0	0	2	1	0	0.110470	0
57	white	0.200000	0.011252	0.048000	100.000000	0.200000	1	1	21	1	1	0.072560	0
58	white	0.200000	0.011252	0.048000	100.000000	0.200000	1	0	3	0	1	0.212530	0
59	white	0.200000	0.015000	0.048000	100.000000	0.200000	0	0	11	0	1	0.041280	0
60	white	0.200000	0.015000	0.048000	100.000000	0.200000	1	1	33	1	1	0.100640	0
61	white	0.200000	0.007505	0.048000	100.000000	0.200000	0	0	2	0	1	0.176140	0
62	white	0.200000	0.007505	0.048000	100.000000	0.200000	0	0	39	0	1	0.129720	0
63	white	0.200000	0.007505	0.048000	100.000000	0.200000	0	0	26	0	1	0.125270	0
64	white	0.200000	0.003757	0.048000	100.000000	0.200000	0	1	3	0	0	0.101090	0
65	white	0.200000	0.011252	0.048000	100.000000	0.200000	1	0	14	0	1	0.199200	0
66	white	0.200000	0.015000	0.048000	100.000000	0.200000	1	1	23	1	1	0.031270	0
67	white	0.200000	0.011252	0.048000	100.000000	0.200000	0	1	4	1	1	0.053120	0
68	white	0.200000	0.011252	0.048000	100.000000	0.200000	1	0	37	0	1	0.078220	0
69	white	0.200000	0.003757	0.048000	100.000000	0.200000	1	1	22	0	0	0.267120	0
70	white	0.200000	0.011252	0.048000	100.000000	0.200000	1	0	32	0	1	0.048700	0
71	white	0.200000	0.011252	0.048000	100.000000	0.200000	1	0	27	0	1	0.040520	0
72	white	0.200000	0.003757	0.048000	100.000000	0.200000	0	0	18	0	1	0.034210	0
73	white	0.200000	0.007505	0.048000	100.000000	0.200000	0	1	35	1	1	0.056830	0
74	white	0.200000	0.011252	0.048000	100.000000	0.200000	0	1	6	1	1	0.065040	0
75	white	0.200000	0.011252	0.048000	100.000000	0.200000	1	1	3	1	1	0.077190	0
76	white	0.200000	0.015000	0.048000	100.000000	0.200000	0	0	14	0	1	0.095230	0
77	white	0.200000	0.000010	0.048000	100.000000	0.200000	0	0	24	0	1	0.099020	0
78	white	0.200000	0.011252	0.048000	100.000000	0.200000	0	0	27	0	1	0.146660	0
79	white	0.200000	0.015000	0.048000	100.000000	0.200000	0	0	35	0	1	0.048390	0
80	white	0.200000	0.015000	0.048000	100.000000	0.200000	0	1	29	1	1	0.048330	0
81	white	0.200000	0.015000	0.048000	100.000000	0.200000	1	1	39	1	1	0.056840	0
82	white	0.200000	0.007505	0.048000	100.000000	0.200000	1	0	16	1	0	0.073470	0
83	white	0.200000	0.011252	0.048000	100.000000	0.200000	1	1	8	1	1	0.082650	0
84	white	0.200000	0.007505	0.048000	100.000000	0.200000	0	1	33	1	1	0.058590	0
85	white	0.200000	0.003757	0.048000	100.000000	0.200000	0	1	22	1	1	0.054450	0
86	white	0.200000	0.015000	0.048000	100.000000	0.200000	0	0	8	0	1	0.009760	0
87	white	0.200000	0.015000	0.048000	100.000000	0.200000	1	1	27	0	0	0.106140	0
88	white	0.200000	0.003757	0.048000	100.000000	0.200000	0	0	27	1	0	0.128500	0
89	white	0.200000	0.011252	0.048000	100.000000	0.200000	0	1	5	1	1	0.042800	0
90	white	0.200000	0.003757	0.048000	100.000000	0.200000	0	0	10	1	0	0.119760	0
91	white	0.200000	0.003757	0.048000	100.000000	0.200000	0	0	19	1	0	0.058210	0
92	white	0.200000	0.003757	0.048000	100.000000	0.200000	0	0	17	0	1	0.133910	0
93	white	0.200000	0.011252	0.048000	100.000000	0.200000	1	0	8	0	1	0.061500	0
94	white	0.200000	0.000010	0.048000	100.000000	0.200000	1	0	35	0	1	0.139540	0
95	white	0.200000	0.015000	0.048000	100.000000	0.200000	1	0	21	0	1	0.128540	0
96	white	0.200000	0.015000	0.048000	100.000000	0.200000	0	0	34	0	1	0.010920	0
97	white	0.200000	0.003757	0.048000	100.000000	0.200000	1	1	17	0	0	0.120390	0
98	white	0.200000	0.015000	0.048000	100.000000	0.200000	0	0	32	0	1	0.062080	0
99	white	0.200000	0.015000	0.048000	100.000000	0.200000	1	1	9	1	1	0.048290	0
