trial	noise	noise_contrast	edge_contrast	edge_width	mean_lum	stim_time	rotID	transID	maskID	resp	correct	resptime	dropframes
0	narrow0.5	0.200000	0.000010	0.950000	100.000000	0.200000	1	1	5	1	1	0.375350	0
1	narrow0.5	0.200000	0.007500	0.950000	100.000000	0.200000	0	1	35	1	1	0.091770	0
2	narrow0.5	0.200000	0.005627	0.950000	100.000000	0.200000	1	1	7	1	1	0.128140	0
3	narrow0.5	0.200000	0.000010	0.950000	100.000000	0.200000	1	1	16	1	1	0.224750	0
4	narrow0.5	0.200000	0.000010	0.950000	100.000000	0.200000	1	1	21	0	0	0.227180	0
5	narrow0.5	0.200000	0.005627	0.950000	100.000000	0.200000	0	0	12	0	1	0.400890	0
6	narrow0.5	0.200000	0.005627	0.950000	100.000000	0.200000	0	1	5	1	1	0.123140	0
7	narrow0.5	0.200000	0.000010	0.950000	100.000000	0.200000	1	0	21	1	0	0.149770	0
8	narrow0.5	0.200000	0.005627	0.950000	100.000000	0.200000	1	1	12	1	1	0.136710	0
9	narrow0.5	0.200000	0.007500	0.950000	100.000000	0.200000	1	0	25	0	1	0.076330	0
10	narrow0.5	0.200000	0.003755	0.950000	100.000000	0.200000	0	0	31	0	1	0.151060	0
11	narrow0.5	0.200000	0.001883	0.950000	100.000000	0.200000	1	0	38	0	1	0.151050	0
12	narrow0.5	0.200000	0.007500	0.950000	100.000000	0.200000	0	0	7	0	1	0.177000	0
13	narrow0.5	0.200000	0.001883	0.950000	100.000000	0.200000	0	0	29	0	1	0.431720	0
14	narrow0.5	0.200000	0.007500	0.950000	100.000000	0.200000	0	0	25	0	1	0.119780	0
15	narrow0.5	0.200000	0.000010	0.950000	100.000000	0.200000	0	0	19	0	1	0.186130	0
16	narrow0.5	0.200000	0.005627	0.950000	100.000000	0.200000	0	0	13	0	1	0.268890	0
17	narrow0.5	0.200000	0.005627	0.950000	100.000000	0.200000	0	0	3	0	1	0.108990	0
18	narrow0.5	0.200000	0.001883	0.950000	100.000000	0.200000	1	0	28	1	0	0.286450	0
19	narrow0.5	0.200000	0.003755	0.950000	100.000000	0.200000	0	1	1	1	1	0.199920	0
20	narrow0.5	0.200000	0.001883	0.950000	100.000000	0.200000	1	0	33	0	1	0.662500	0
21	narrow0.5	0.200000	0.005627	0.950000	100.000000	0.200000	0	1	14	1	1	0.124040	0
22	narrow0.5	0.200000	0.005627	0.950000	100.000000	0.200000	1	1	30	1	1	0.142380	0
23	narrow0.5	0.200000	0.003755	0.950000	100.000000	0.200000	1	0	22	1	0	0.314300	0
24	narrow0.5	0.200000	0.003755	0.950000	100.000000	0.200000	1	1	19	1	1	0.160690	0
25	narrow0.5	0.200000	0.003755	0.950000	100.000000	0.200000	0	1	33	1	1	0.150700	0
26	narrow0.5	0.200000	0.007500	0.950000	100.000000	0.200000	0	1	1	1	1	0.091780	0
27	narrow0.5	0.200000	0.007500	0.950000	100.000000	0.200000	1	0	19	0	1	0.130670	0
28	narrow0.5	0.200000	0.000010	0.950000	100.000000	0.200000	1	0	20	0	1	0.242610	0
29	narrow0.5	0.200000	0.003755	0.950000	100.000000	0.200000	0	1	33	1	1	0.103750	0
30	narrow0.5	0.200000	0.001883	0.950000	100.000000	0.200000	0	1	34	1	1	0.177950	0
31	narrow0.5	0.200000	0.001883	0.950000	100.000000	0.200000	1	1	24	1	1	0.227700	0
32	narrow0.5	0.200000	0.007500	0.950000	100.000000	0.200000	0	0	39	0	1	0.087710	0
33	narrow0.5	0.200000	0.005627	0.950000	100.000000	0.200000	1	1	29	1	1	0.166580	0
34	narrow0.5	0.200000	0.007500	0.950000	100.000000	0.200000	1	1	5	1	1	0.070120	0
35	narrow0.5	0.200000	0.000010	0.950000	100.000000	0.200000	0	0	5	1	0	0.190530	0
36	narrow0.5	0.200000	0.001883	0.950000	100.000000	0.200000	0	1	3	1	1	0.079380	0
37	narrow0.5	0.200000	0.007500	0.950000	100.000000	0.200000	1	1	21	1	1	0.083910	0
38	narrow0.5	0.200000	0.007500	0.950000	100.000000	0.200000	1	1	17	1	1	0.077580	0
39	narrow0.5	0.200000	0.001883	0.950000	100.000000	0.200000	1	0	23	0	1	0.226900	0
40	narrow0.5	0.200000	0.003755	0.950000	100.000000	0.200000	0	0	1	0	1	0.139060	0
41	narrow0.5	0.200000	0.007500	0.950000	100.000000	0.200000	1	1	22	1	1	0.137310	0
42	narrow0.5	0.200000	0.000010	0.950000	100.000000	0.200000	0	0	9	0	1	0.084750	0
43	narrow0.5	0.200000	0.000010	0.950000	100.000000	0.200000	0	0	30	1	0	0.264370	0
44	narrow0.5	0.200000	0.007500	0.950000	100.000000	0.200000	1	0	25	0	1	0.136480	0
45	narrow0.5	0.200000	0.000010	0.950000	100.000000	0.200000	1	0	29	1	0	0.267890	0
46	narrow0.5	0.200000	0.001883	0.950000	100.000000	0.200000	0	1	21	0	0	0.235280	0
47	narrow0.5	0.200000	0.007500	0.950000	100.000000	0.200000	1	1	2	1	1	0.050990	0
48	narrow0.5	0.200000	0.000010	0.950000	100.000000	0.200000	1	0	29	1	0	0.124310	0
49	narrow0.5	0.200000	0.000010	0.950000	100.000000	0.200000	0	0	28	0	1	0.063660	0
50	narrow0.5	0.200000	0.005627	0.950000	100.000000	0.200000	1	1	2	1	1	0.037200	0
51	narrow0.5	0.200000	0.001883	0.950000	100.000000	0.200000	1	0	22	1	0	0.131670	0
52	narrow0.5	0.200000	0.007500	0.950000	100.000000	0.200000	1	1	12	1	1	0.147580	0
53	narrow0.5	0.200000	0.000010	0.950000	100.000000	0.200000	0	1	14	1	1	0.065900	0
54	narrow0.5	0.200000	0.007500	0.950000	100.000000	0.200000	0	1	23	1	1	0.106140	0
55	narrow0.5	0.200000	0.003755	0.950000	100.000000	0.200000	0	1	33	1	1	0.095110	0
56	narrow0.5	0.200000	0.003755	0.950000	100.000000	0.200000	0	0	16	0	1	0.237380	0
57	narrow0.5	0.200000	0.003755	0.950000	100.000000	0.200000	1	0	0	0	1	0.079590	0
58	narrow0.5	0.200000	0.007500	0.950000	100.000000	0.200000	1	1	14	1	1	0.130610	0
59	narrow0.5	0.200000	0.001883	0.950000	100.000000	0.200000	1	1	14	1	1	0.056080	0
60	narrow0.5	0.200000	0.007500	0.950000	100.000000	0.200000	1	1	29	1	1	0.087470	0
61	narrow0.5	0.200000	0.003755	0.950000	100.000000	0.200000	1	1	15	0	0	0.302290	0
62	narrow0.5	0.200000	0.000010	0.950000	100.000000	0.200000	0	0	35	0	1	0.319460	0
63	narrow0.5	0.200000	0.005627	0.950000	100.000000	0.200000	1	0	6	0	1	0.181700	0
64	narrow0.5	0.200000	0.005627	0.950000	100.000000	0.200000	1	0	6	0	1	0.090820	0
65	narrow0.5	0.200000	0.003755	0.950000	100.000000	0.200000	0	1	29	1	1	0.132590	0
66	narrow0.5	0.200000	0.003755	0.950000	100.000000	0.200000	0	0	38	1	0	0.178970	0
67	narrow0.5	0.200000	0.001883	0.950000	100.000000	0.200000	0	1	18	1	1	0.314730	0
68	narrow0.5	0.200000	0.001883	0.950000	100.000000	0.200000	1	0	23	0	1	0.195990	0
69	narrow0.5	0.200000	0.000010	0.950000	100.000000	0.200000	0	0	15	1	0	0.377490	0
70	narrow0.5	0.200000	0.000010	0.950000	100.000000	0.200000	0	0	17	1	0	0.197500	0
71	narrow0.5	0.200000	0.003755	0.950000	100.000000	0.200000	1	1	18	1	1	0.075020	0
72	narrow0.5	0.200000	0.001883	0.950000	100.000000	0.200000	1	1	36	0	0	0.200200	0
73	narrow0.5	0.200000	0.003755	0.950000	100.000000	0.200000	0	0	30	0	1	0.066170	0
74	narrow0.5	0.200000	0.001883	0.950000	100.000000	0.200000	0	0	11	0	1	0.143100	0
75	narrow0.5	0.200000	0.005627	0.950000	100.000000	0.200000	0	1	39	1	1	0.108040	0
76	narrow0.5	0.200000	0.001883	0.950000	100.000000	0.200000	1	1	7	1	1	0.277390	0
77	narrow0.5	0.200000	0.005627	0.950000	100.000000	0.200000	1	1	39	1	1	0.041380	0
78	narrow0.5	0.200000	0.003755	0.950000	100.000000	0.200000	1	1	28	1	1	0.153100	0
79	narrow0.5	0.200000	0.005627	0.950000	100.000000	0.200000	1	0	3	0	1	0.080990	0
80	narrow0.5	0.200000	0.005627	0.950000	100.000000	0.200000	0	1	35	1	1	0.120240	0
81	narrow0.5	0.200000	0.007500	0.950000	100.000000	0.200000	1	0	34	0	1	0.154530	0
82	narrow0.5	0.200000	0.000010	0.950000	100.000000	0.200000	0	0	18	0	1	0.155020	0
83	narrow0.5	0.200000	0.005627	0.950000	100.000000	0.200000	0	1	17	1	1	0.145590	0
84	narrow0.5	0.200000	0.001883	0.950000	100.000000	0.200000	0	1	34	1	1	0.086610	0
85	narrow0.5	0.200000	0.000010	0.950000	100.000000	0.200000	1	1	4	1	1	0.355370	0
86	narrow0.5	0.200000	0.001883	0.950000	100.000000	0.200000	1	0	20	0	1	0.273890	0
87	narrow0.5	0.200000	0.001883	0.950000	100.000000	0.200000	1	1	8	0	0	0.102800	0
88	narrow0.5	0.200000	0.003755	0.950000	100.000000	0.200000	1	1	34	1	1	0.176850	0
89	narrow0.5	0.200000	0.001883	0.950000	100.000000	0.200000	1	1	1	1	1	0.034970	0
90	narrow0.5	0.200000	0.005627	0.950000	100.000000	0.200000	1	0	30	0	1	0.130220	0
91	narrow0.5	0.200000	0.005627	0.950000	100.000000	0.200000	0	1	0	1	1	0.166050	0
92	narrow0.5	0.200000	0.007500	0.950000	100.000000	0.200000	1	0	15	0	1	0.080980	0
93	narrow0.5	0.200000	0.000010	0.950000	100.000000	0.200000	1	1	1	1	1	0.233380	0
94	narrow0.5	0.200000	0.000010	0.950000	100.000000	0.200000	0	1	39	1	1	0.111640	0
95	narrow0.5	0.200000	0.003755	0.950000	100.000000	0.200000	0	1	33	1	1	0.326730	0
96	narrow0.5	0.200000	0.007500	0.950000	100.000000	0.200000	0	0	36	0	1	0.112510	0
97	narrow0.5	0.200000	0.003755	0.950000	100.000000	0.200000	0	1	36	1	1	0.200040	0
98	narrow0.5	0.200000	0.005627	0.950000	100.000000	0.200000	1	1	30	1	1	0.169020	0
99	narrow0.5	0.200000	0.003755	0.950000	100.000000	0.200000	0	1	20	1	1	0.085900	0
