trial	noise	noise_contrast	edge_contrast	edge_width	mean_lum	stim_time	rotID	transID	maskID	resp	correct	resptime	dropframes
0	narrow9	0.200000	0.000010	0.150000	100.000000	0.200000	1	1	14	0	0	0.427450	0
1	narrow9	0.200000	0.000010	0.150000	100.000000	0.200000	1	1	33	1	1	0.127730	0
2	narrow9	0.200000	0.000010	0.150000	100.000000	0.200000	0	0	2	1	0	0.087940	0
3	narrow9	0.200000	0.005627	0.150000	100.000000	0.200000	0	1	34	1	1	0.028490	0
4	narrow9	0.200000	0.000010	0.150000	100.000000	0.200000	1	1	22	1	1	0.118610	0
5	narrow9	0.200000	0.007500	0.150000	100.000000	0.200000	0	1	20	1	1	0.088680	0
6	narrow9	0.200000	0.005627	0.150000	100.000000	0.200000	0	0	9	0	1	0.073100	0
7	narrow9	0.200000	0.007500	0.150000	100.000000	0.200000	1	0	23	0	1	0.020420	0
8	narrow9	0.200000	0.000010	0.150000	100.000000	0.200000	0	0	38	1	0	0.169510	0
9	narrow9	0.200000	0.000010	0.150000	100.000000	0.200000	1	0	34	0	1	0.068530	0
10	narrow9	0.200000	0.003755	0.150000	100.000000	0.200000	1	1	20	1	1	0.119030	0
11	narrow9	0.200000	0.001883	0.150000	100.000000	0.200000	0	1	21	0	0	0.034010	0
12	narrow9	0.200000	0.005627	0.150000	100.000000	0.200000	1	0	39	0	1	0.099110	0
13	narrow9	0.200000	0.003755	0.150000	100.000000	0.200000	0	0	22	1	0	0.116190	0
14	narrow9	0.200000	0.003755	0.150000	100.000000	0.200000	0	0	1	0	1	0.325970	1
15	narrow9	0.200000	0.007500	0.150000	100.000000	0.200000	0	1	31	1	1	0.079120	0
16	narrow9	0.200000	0.005627	0.150000	100.000000	0.200000	0	1	3	1	1	1.141790	0
17	narrow9	0.200000	0.001883	0.150000	100.000000	0.200000	0	1	22	1	1	0.108480	0
18	narrow9	0.200000	0.001883	0.150000	100.000000	0.200000	1	0	24	0	1	0.085980	0
19	narrow9	0.200000	0.007500	0.150000	100.000000	0.200000	1	0	13	0	1	0.015740	0
20	narrow9	0.200000	0.003755	0.150000	100.000000	0.200000	1	1	31	1	1	0.065800	0
21	narrow9	0.200000	0.001883	0.150000	100.000000	0.200000	1	0	11	1	0	0.069840	0
22	narrow9	0.200000	0.003755	0.150000	100.000000	0.200000	0	0	4	1	0	0.195350	0
23	narrow9	0.200000	0.003755	0.150000	100.000000	0.200000	0	1	15	1	1	0.142340	0
24	narrow9	0.200000	0.003755	0.150000	100.000000	0.200000	1	1	30	1	1	0.021170	0
25	narrow9	0.200000	0.003755	0.150000	100.000000	0.200000	0	0	38	0	1	0.121680	0
26	narrow9	0.200000	0.000010	0.150000	100.000000	0.200000	1	0	23	1	0	0.034380	0
27	narrow9	0.200000	0.000010	0.150000	100.000000	0.200000	1	1	35	1	1	0.026900	0
28	narrow9	0.200000	0.001883	0.150000	100.000000	0.200000	1	1	24	1	1	0.045090	0
29	narrow9	0.200000	0.005627	0.150000	100.000000	0.200000	1	0	17	0	1	0.120590	0
30	narrow9	0.200000	0.005627	0.150000	100.000000	0.200000	0	0	24	0	1	0.103670	0
31	narrow9	0.200000	0.000010	0.150000	100.000000	0.200000	0	1	28	1	1	0.319550	0
32	narrow9	0.200000	0.007500	0.150000	100.000000	0.200000	1	0	12	0	1	0.162780	0
33	narrow9	0.200000	0.003755	0.150000	100.000000	0.200000	1	0	38	1	0	0.512790	0
34	narrow9	0.200000	0.005627	0.150000	100.000000	0.200000	1	0	18	1	0	0.209450	0
35	narrow9	0.200000	0.007500	0.150000	100.000000	0.200000	1	0	3	0	1	0.051730	0
36	narrow9	0.200000	0.000010	0.150000	100.000000	0.200000	1	1	33	1	1	0.108130	0
37	narrow9	0.200000	0.003755	0.150000	100.000000	0.200000	0	0	22	1	0	0.209000	0
38	narrow9	0.200000	0.000010	0.150000	100.000000	0.200000	0	0	38	0	1	0.175060	0
39	narrow9	0.200000	0.000010	0.150000	100.000000	0.200000	1	0	0	1	0	0.131800	0
40	narrow9	0.200000	0.000010	0.150000	100.000000	0.200000	0	1	32	1	1	0.195480	0
41	narrow9	0.200000	0.001883	0.150000	100.000000	0.200000	0	1	10	1	1	0.108110	0
42	narrow9	0.200000	0.005627	0.150000	100.000000	0.200000	0	0	7	0	1	0.142700	0
43	narrow9	0.200000	0.000010	0.150000	100.000000	0.200000	0	0	32	1	0	0.116790	0
44	narrow9	0.200000	0.001883	0.150000	100.000000	0.200000	0	1	21	0	0	0.157930	0
45	narrow9	0.200000	0.003755	0.150000	100.000000	0.200000	1	0	28	1	0	0.274280	0
46	narrow9	0.200000	0.001883	0.150000	100.000000	0.200000	0	1	36	1	1	0.155520	0
47	narrow9	0.200000	0.001883	0.150000	100.000000	0.200000	1	1	39	1	1	0.159780	0
48	narrow9	0.200000	0.003755	0.150000	100.000000	0.200000	0	0	20	1	0	0.132820	0
49	narrow9	0.200000	0.001883	0.150000	100.000000	0.200000	1	0	2	1	0	0.179110	0
50	narrow9	0.200000	0.007500	0.150000	100.000000	0.200000	1	0	39	1	0	0.436300	0
51	narrow9	0.200000	0.003755	0.150000	100.000000	0.200000	0	1	23	1	1	0.273800	0
52	narrow9	0.200000	0.000010	0.150000	100.000000	0.200000	0	0	18	1	0	0.330120	0
53	narrow9	0.200000	0.007500	0.150000	100.000000	0.200000	1	1	12	1	1	0.047910	0
54	narrow9	0.200000	0.003755	0.150000	100.000000	0.200000	1	1	14	1	1	0.105550	0
55	narrow9	0.200000	0.003755	0.150000	100.000000	0.200000	1	1	10	0	0	0.338020	0
56	narrow9	0.200000	0.005627	0.150000	100.000000	0.200000	1	0	9	0	1	0.149400	0
57	narrow9	0.200000	0.007500	0.150000	100.000000	0.200000	1	1	33	1	1	0.117990	0
58	narrow9	0.200000	0.005627	0.150000	100.000000	0.200000	1	0	0	0	1	0.170800	0
59	narrow9	0.200000	0.005627	0.150000	100.000000	0.200000	0	1	7	1	1	0.114980	0
60	narrow9	0.200000	0.005627	0.150000	100.000000	0.200000	1	0	32	0	1	0.111130	0
61	narrow9	0.200000	0.001883	0.150000	100.000000	0.200000	1	1	7	1	1	0.185860	0
62	narrow9	0.200000	0.001883	0.150000	100.000000	0.200000	1	1	15	1	1	0.132530	0
63	narrow9	0.200000	0.005627	0.150000	100.000000	0.200000	1	1	38	1	1	0.060420	0
64	narrow9	0.200000	0.007500	0.150000	100.000000	0.200000	0	1	19	1	1	0.042070	0
65	narrow9	0.200000	0.000010	0.150000	100.000000	0.200000	1	1	31	1	1	0.248820	0
66	narrow9	0.200000	0.007500	0.150000	100.000000	0.200000	1	0	11	0	1	0.094760	0
67	narrow9	0.200000	0.007500	0.150000	100.000000	0.200000	0	0	19	0	1	0.122060	0
68	narrow9	0.200000	0.005627	0.150000	100.000000	0.200000	1	1	10	1	1	0.084920	0
69	narrow9	0.200000	0.001883	0.150000	100.000000	0.200000	1	1	15	1	1	0.170690	0
70	narrow9	0.200000	0.007500	0.150000	100.000000	0.200000	1	0	28	0	1	0.120450	0
71	narrow9	0.200000	0.001883	0.150000	100.000000	0.200000	0	1	27	0	0	0.291820	0
72	narrow9	0.200000	0.003755	0.150000	100.000000	0.200000	1	1	14	1	1	0.106250	0
73	narrow9	0.200000	0.001883	0.150000	100.000000	0.200000	1	1	7	1	1	0.143340	0
74	narrow9	0.200000	0.005627	0.150000	100.000000	0.200000	0	1	4	1	1	0.116970	0
75	narrow9	0.200000	0.007500	0.150000	100.000000	0.200000	0	0	37	0	1	0.108550	0
76	narrow9	0.200000	0.007500	0.150000	100.000000	0.200000	0	1	29	1	1	0.080920	0
77	narrow9	0.200000	0.000010	0.150000	100.000000	0.200000	0	0	31	1	0	0.102480	0
78	narrow9	0.200000	0.005627	0.150000	100.000000	0.200000	1	1	11	1	1	0.043450	0
79	narrow9	0.200000	0.003755	0.150000	100.000000	0.200000	0	1	2	1	1	0.047940	0
80	narrow9	0.200000	0.007500	0.150000	100.000000	0.200000	0	0	35	0	1	0.086920	0
81	narrow9	0.200000	0.005627	0.150000	100.000000	0.200000	1	0	37	0	1	0.011400	0
82	narrow9	0.200000	0.000010	0.150000	100.000000	0.200000	0	0	7	0	1	0.064670	0
83	narrow9	0.200000	0.001883	0.150000	100.000000	0.200000	1	1	35	1	1	0.024660	0
84	narrow9	0.200000	0.001883	0.150000	100.000000	0.200000	1	0	5	1	0	0.006630	0
85	narrow9	0.200000	0.007500	0.150000	100.000000	0.200000	1	1	39	1	1	0.002240	0
86	narrow9	0.200000	0.000010	0.150000	100.000000	0.200000	0	0	32	1	0	1.041110	0
87	narrow9	0.200000	0.003755	0.150000	100.000000	0.200000	1	0	18	1	0	0.115900	0
88	narrow9	0.200000	0.003755	0.150000	100.000000	0.200000	0	0	24	1	0	0.107500	0
89	narrow9	0.200000	0.005627	0.150000	100.000000	0.200000	0	0	27	0	1	0.057500	0
90	narrow9	0.200000	0.001883	0.150000	100.000000	0.200000	1	1	35	1	1	0.158250	0
91	narrow9	0.200000	0.005627	0.150000	100.000000	0.200000	1	0	16	0	1	0.062390	0
92	narrow9	0.200000	0.007500	0.150000	100.000000	0.200000	0	1	14	1	1	0.181880	0
93	narrow9	0.200000	0.007500	0.150000	100.000000	0.200000	0	1	0	1	1	0.074720	0
94	narrow9	0.200000	0.000010	0.150000	100.000000	0.200000	0	1	39	1	1	0.039140	0
95	narrow9	0.200000	0.001883	0.150000	100.000000	0.200000	0	1	28	1	1	0.075750	0
96	narrow9	0.200000	0.007500	0.150000	100.000000	0.200000	1	0	1	0	1	0.067990	0
97	narrow9	0.200000	0.005627	0.150000	100.000000	0.200000	1	1	15	1	1	0.041490	0
98	narrow9	0.200000	0.003755	0.150000	100.000000	0.200000	1	1	36	1	1	0.056050	0
99	narrow9	0.200000	0.001883	0.150000	100.000000	0.200000	1	1	5	1	1	0.035140	0
