trial	noise	noise_contrast	edge_contrast	edge_width	mean_lum	stim_time	rotID	transID	maskID	resp	correct	resptime	dropframes
0	white	0.200000	0.015000	0.950000	100.000000	0.200000	0	1	2	1	1	0.115450	0
1	white	0.200000	0.000010	0.950000	100.000000	0.200000	0	1	28	1	1	0.090350	0
2	white	0.200000	0.007505	0.950000	100.000000	0.200000	1	0	5	0	1	0.653140	0
3	white	0.200000	0.007505	0.950000	100.000000	0.200000	0	0	21	0	1	0.159450	0
4	white	0.200000	0.000010	0.950000	100.000000	0.200000	0	1	19	0	0	0.141310	0
5	white	0.200000	0.015000	0.950000	100.000000	0.200000	0	0	8	0	1	0.097830	0
6	white	0.200000	0.015000	0.950000	100.000000	0.200000	0	0	33	0	1	0.148780	0
7	white	0.200000	0.003757	0.950000	100.000000	0.200000	0	1	37	1	1	0.280210	0
8	white	0.200000	0.011252	0.950000	100.000000	0.200000	0	1	2	1	1	0.114840	0
9	white	0.200000	0.003757	0.950000	100.000000	0.200000	1	1	23	1	1	0.191490	0
10	white	0.200000	0.003757	0.950000	100.000000	0.200000	0	1	18	0	0	0.283480	0
11	white	0.200000	0.000010	0.950000	100.000000	0.200000	0	1	21	1	1	0.598890	0
12	white	0.200000	0.000010	0.950000	100.000000	0.200000	1	1	4	1	1	0.308200	0
13	white	0.200000	0.003757	0.950000	100.000000	0.200000	1	1	1	1	1	0.267910	0
14	white	0.200000	0.003757	0.950000	100.000000	0.200000	1	0	29	0	1	0.543080	0
15	white	0.200000	0.011252	0.950000	100.000000	0.200000	1	0	7	0	1	0.178640	0
16	white	0.200000	0.000010	0.950000	100.000000	0.200000	0	0	8	1	0	0.326910	0
17	white	0.200000	0.000010	0.950000	100.000000	0.200000	1	1	27	0	0	0.372110	0
18	white	0.200000	0.015000	0.950000	100.000000	0.200000	0	1	20	1	1	0.274320	0
19	white	0.200000	0.003757	0.950000	100.000000	0.200000	0	0	17	0	1	0.342820	0
20	white	0.200000	0.007505	0.950000	100.000000	0.200000	0	1	39	1	1	0.200110	0
21	white	0.200000	0.007505	0.950000	100.000000	0.200000	1	0	10	0	1	0.320290	0
22	white	0.200000	0.015000	0.950000	100.000000	0.200000	1	1	25	1	1	0.181750	0
23	white	0.200000	0.007505	0.950000	100.000000	0.200000	1	0	20	1	0	0.493040	0
24	white	0.200000	0.007505	0.950000	100.000000	0.200000	0	0	36	0	1	1.116240	0
25	white	0.200000	0.011252	0.950000	100.000000	0.200000	1	0	17	0	1	0.199160	0
26	white	0.200000	0.007505	0.950000	100.000000	0.200000	1	1	0	1	1	0.256680	0
27	white	0.200000	0.011252	0.950000	100.000000	0.200000	0	1	2	1	1	0.157130	0
28	white	0.200000	0.003757	0.950000	100.000000	0.200000	0	1	37	1	1	0.152000	0
29	white	0.200000	0.003757	0.950000	100.000000	0.200000	1	0	24	0	1	0.265930	0
30	white	0.200000	0.007505	0.950000	100.000000	0.200000	1	1	5	1	1	0.136040	0
31	white	0.200000	0.011252	0.950000	100.000000	0.200000	1	1	13	1	1	0.168900	0
32	white	0.200000	0.015000	0.950000	100.000000	0.200000	1	1	15	1	1	0.045100	0
33	white	0.200000	0.011252	0.950000	100.000000	0.200000	0	1	0	1	1	0.093590	0
34	white	0.200000	0.000010	0.950000	100.000000	0.200000	0	0	22	1	0	0.290010	0
35	white	0.200000	0.011252	0.950000	100.000000	0.200000	1	0	6	0	1	0.113120	0
36	white	0.200000	0.007505	0.950000	100.000000	0.200000	0	1	39	1	1	0.099420	0
37	white	0.200000	0.011252	0.950000	100.000000	0.200000	1	1	8	1	1	0.134110	0
38	white	0.200000	0.007505	0.950000	100.000000	0.200000	1	0	3	1	0	0.140510	0
39	white	0.200000	0.000010	0.950000	100.000000	0.200000	1	1	35	1	1	0.106590	0
40	white	0.200000	0.007505	0.950000	100.000000	0.200000	1	1	32	1	1	0.138540	0
41	white	0.200000	0.011252	0.950000	100.000000	0.200000	0	0	6	0	1	0.190220	0
42	white	0.200000	0.011252	0.950000	100.000000	0.200000	1	0	5	0	1	0.147090	0
43	white	0.200000	0.007505	0.950000	100.000000	0.200000	0	0	3	0	1	0.174610	0
44	white	0.200000	0.011252	0.950000	100.000000	0.200000	1	1	6	1	1	0.128530	0
45	white	0.200000	0.007505	0.950000	100.000000	0.200000	0	1	35	1	1	0.064640	0
46	white	0.200000	0.015000	0.950000	100.000000	0.200000	0	1	2	1	1	0.042020	0
47	white	0.200000	0.007505	0.950000	100.000000	0.200000	1	1	17	1	1	0.068580	0
48	white	0.200000	0.003757	0.950000	100.000000	0.200000	0	0	19	1	0	0.083660	0
49	white	0.200000	0.011252	0.950000	100.000000	0.200000	1	0	2	0	1	0.144120	0
50	white	0.200000	0.003757	0.950000	100.000000	0.200000	1	0	7	0	1	0.217050	0
51	white	0.200000	0.000010	0.950000	100.000000	0.200000	1	0	26	0	1	0.332360	0
52	white	0.200000	0.011252	0.950000	100.000000	0.200000	1	1	13	1	1	0.096910	0
53	white	0.200000	0.003757	0.950000	100.000000	0.200000	0	1	37	1	1	0.230170	0
54	white	0.200000	0.011252	0.950000	100.000000	0.200000	0	0	21	0	1	0.367550	0
55	white	0.200000	0.007505	0.950000	100.000000	0.200000	1	0	4	1	0	0.368260	0
56	white	0.200000	0.011252	0.950000	100.000000	0.200000	1	0	23	0	1	0.110810	0
57	white	0.200000	0.000010	0.950000	100.000000	0.200000	1	0	16	1	0	0.250720	0
58	white	0.200000	0.003757	0.950000	100.000000	0.200000	0	0	20	1	0	0.215440	0
59	white	0.200000	0.003757	0.950000	100.000000	0.200000	1	0	20	1	0	0.178980	0
60	white	0.200000	0.015000	0.950000	100.000000	0.200000	0	1	37	1	1	0.126160	0
61	white	0.200000	0.003757	0.950000	100.000000	0.200000	0	0	25	0	1	0.151060	0
62	white	0.200000	0.000010	0.950000	100.000000	0.200000	1	1	12	1	1	0.332580	0
63	white	0.200000	0.015000	0.950000	100.000000	0.200000	1	0	22	0	1	0.124280	0
64	white	0.200000	0.007505	0.950000	100.000000	0.200000	1	1	30	1	1	0.123520	0
65	white	0.200000	0.011252	0.950000	100.000000	0.200000	1	1	13	1	1	0.066730	0
66	white	0.200000	0.011252	0.950000	100.000000	0.200000	1	1	32	1	1	0.131790	0
67	white	0.200000	0.015000	0.950000	100.000000	0.200000	0	1	30	1	1	0.032690	0
68	white	0.200000	0.007505	0.950000	100.000000	0.200000	1	0	6	1	0	0.236110	0
69	white	0.200000	0.011252	0.950000	100.000000	0.200000	1	0	31	0	1	0.115270	0
70	white	0.200000	0.003757	0.950000	100.000000	0.200000	1	1	33	1	1	0.227290	0
71	white	0.200000	0.007505	0.950000	100.000000	0.200000	0	1	20	1	1	0.057680	0
72	white	0.200000	0.011252	0.950000	100.000000	0.200000	1	1	39	1	1	0.071610	0
73	white	0.200000	0.000010	0.950000	100.000000	0.200000	0	0	39	1	0	0.079310	0
74	white	0.200000	0.015000	0.950000	100.000000	0.200000	0	0	24	0	1	0.267320	0
75	white	0.200000	0.000010	0.950000	100.000000	0.200000	0	1	22	0	0	0.128050	0
76	white	0.200000	0.011252	0.950000	100.000000	0.200000	0	0	14	0	1	0.042400	0
77	white	0.200000	0.000010	0.950000	100.000000	0.200000	1	0	9	0	1	0.124460	0
78	white	0.200000	0.003757	0.950000	100.000000	0.200000	0	1	14	0	0	0.173760	0
79	white	0.200000	0.015000	0.950000	100.000000	0.200000	0	0	9	0	1	0.173970	0
80	white	0.200000	0.000010	0.950000	100.000000	0.200000	1	0	9	0	1	0.249610	0
81	white	0.200000	0.000010	0.950000	100.000000	0.200000	1	0	17	1	0	0.102150	0
82	white	0.200000	0.015000	0.950000	100.000000	0.200000	0	0	16	0	1	0.106160	0
83	white	0.200000	0.007505	0.950000	100.000000	0.200000	1	1	33	1	1	0.116810	0
84	white	0.200000	0.015000	0.950000	100.000000	0.200000	1	1	36	1	1	0.061420	0
85	white	0.200000	0.015000	0.950000	100.000000	0.200000	1	1	35	1	1	0.076520	0
86	white	0.200000	0.000010	0.950000	100.000000	0.200000	1	0	27	1	0	0.195480	0
87	white	0.200000	0.015000	0.950000	100.000000	0.200000	0	0	38	0	1	0.103880	0
88	white	0.200000	0.003757	0.950000	100.000000	0.200000	0	1	2	0	0	0.119160	0
89	white	0.200000	0.015000	0.950000	100.000000	0.200000	0	0	33	0	1	0.101360	0
90	white	0.200000	0.000010	0.950000	100.000000	0.200000	1	1	15	1	1	0.153960	0
91	white	0.200000	0.007505	0.950000	100.000000	0.200000	0	0	34	1	0	0.207720	0
92	white	0.200000	0.000010	0.950000	100.000000	0.200000	1	1	38	1	1	0.131830	0
93	white	0.200000	0.015000	0.950000	100.000000	0.200000	1	1	31	1	1	0.074800	0
94	white	0.200000	0.003757	0.950000	100.000000	0.200000	1	0	12	0	1	0.262540	0
95	white	0.200000	0.000010	0.950000	100.000000	0.200000	1	1	37	1	1	0.101090	0
96	white	0.200000	0.015000	0.950000	100.000000	0.200000	0	0	35	0	1	0.107260	0
97	white	0.200000	0.003757	0.950000	100.000000	0.200000	1	1	16	1	1	0.198260	0
98	white	0.200000	0.015000	0.950000	100.000000	0.200000	0	1	11	1	1	0.077620	0
99	white	0.200000	0.003757	0.950000	100.000000	0.200000	1	1	16	1	1	0.090860	0
