trial	noise	noise_contrast	edge_contrast	edge_width	mean_lum	stim_time	rotID	transID	maskID	resp	correct	resptime	dropframes
0	none	0.200000	0.000010	0.150000	100.000000	0.200000	1	1	2	1	1	0.402370	0
1	none	0.200000	0.003003	0.150000	100.000000	0.200000	1	1	18	1	1	0.201320	0
2	none	0.200000	0.002005	0.150000	100.000000	0.200000	0	0	8	0	1	0.361450	0
3	none	0.200000	0.003003	0.150000	100.000000	0.200000	1	0	39	0	1	0.173250	0
4	none	0.200000	0.000010	0.150000	100.000000	0.200000	0	0	9	0	1	0.602640	0
5	none	0.200000	0.003003	0.150000	100.000000	0.200000	0	1	24	1	1	0.131810	0
6	none	0.200000	0.001008	0.150000	100.000000	0.200000	1	0	36	0	1	0.454220	0
7	none	0.200000	0.003003	0.150000	100.000000	0.200000	1	0	28	0	1	0.157820	0
8	none	0.200000	0.001008	0.150000	100.000000	0.200000	0	1	38	1	1	0.436110	0
9	none	0.200000	0.003003	0.150000	100.000000	0.200000	0	1	5	1	1	0.178280	0
10	none	0.200000	0.002005	0.150000	100.000000	0.200000	0	1	11	1	1	0.465010	0
11	none	0.200000	0.004000	0.150000	100.000000	0.200000	1	1	25	1	1	0.089770	0
12	none	0.200000	0.000010	0.150000	100.000000	0.200000	1	0	0	0	1	0.327610	0
13	none	0.200000	0.004000	0.150000	100.000000	0.200000	0	1	27	1	1	0.077400	0
14	none	0.200000	0.003003	0.150000	100.000000	0.200000	1	0	4	0	1	0.085520	0
15	none	0.200000	0.000010	0.150000	100.000000	0.200000	0	1	12	1	1	0.391840	0
16	none	0.200000	0.003003	0.150000	100.000000	0.200000	1	0	1	0	1	0.115840	0
17	none	0.200000	0.001008	0.150000	100.000000	0.200000	1	0	36	0	1	0.328070	0
18	none	0.200000	0.000010	0.150000	100.000000	0.200000	1	1	32	0	0	0.541390	0
19	none	0.200000	0.002005	0.150000	100.000000	0.200000	1	0	10	0	1	0.182520	0
20	none	0.200000	0.003003	0.150000	100.000000	0.200000	1	1	36	1	1	0.069310	0
21	none	0.200000	0.001008	0.150000	100.000000	0.200000	1	1	0	0	0	0.420200	0
22	none	0.200000	0.004000	0.150000	100.000000	0.200000	0	1	31	1	1	0.069810	0
23	none	0.200000	0.004000	0.150000	100.000000	0.200000	0	0	2	0	1	0.094820	0
24	none	0.200000	0.002005	0.150000	100.000000	0.200000	0	1	23	0	0	1.002200	0
25	none	0.200000	0.004000	0.150000	100.000000	0.200000	0	1	21	1	1	0.079120	0
26	none	0.200000	0.004000	0.150000	100.000000	0.200000	0	1	18	1	1	0.173370	0
27	none	0.200000	0.003003	0.150000	100.000000	0.200000	0	1	37	1	1	0.138970	0
28	none	0.200000	0.002005	0.150000	100.000000	0.200000	1	0	29	0	1	0.326720	0
29	none	0.200000	0.000010	0.150000	100.000000	0.200000	1	0	12	0	1	0.290160	0
30	none	0.200000	0.000010	0.150000	100.000000	0.200000	0	0	0	0	1	0.508850	0
31	none	0.200000	0.001008	0.150000	100.000000	0.200000	0	1	31	1	1	0.187760	0
32	none	0.200000	0.000010	0.150000	100.000000	0.200000	1	0	31	0	1	0.274180	0
33	none	0.200000	0.002005	0.150000	100.000000	0.200000	1	1	18	1	1	0.328630	0
34	none	0.200000	0.000010	0.150000	100.000000	0.200000	0	0	32	1	0	0.518730	0
35	none	0.200000	0.004000	0.150000	100.000000	0.200000	1	1	13	1	1	0.338730	0
36	none	0.200000	0.004000	0.150000	100.000000	0.200000	0	0	11	0	1	0.064960	0
37	none	0.200000	0.002005	0.150000	100.000000	0.200000	1	1	30	1	1	0.151900	0
38	none	0.200000	0.004000	0.150000	100.000000	0.200000	1	1	31	1	1	0.069410	0
39	none	0.200000	0.002005	0.150000	100.000000	0.200000	1	0	6	0	1	0.087700	0
40	none	0.200000	0.002005	0.150000	100.000000	0.200000	0	0	19	0	1	0.685570	0
41	none	0.200000	0.002005	0.150000	100.000000	0.200000	1	0	37	0	1	0.129050	0
42	none	0.200000	0.000010	0.150000	100.000000	0.200000	1	1	9	1	1	0.161220	0
43	none	0.200000	0.003003	0.150000	100.000000	0.200000	1	1	33	1	1	0.307430	0
44	none	0.200000	0.004000	0.150000	100.000000	0.200000	1	0	17	0	1	0.116990	0
45	none	0.200000	0.004000	0.150000	100.000000	0.200000	0	0	32	0	1	0.040270	0
46	none	0.200000	0.004000	0.150000	100.000000	0.200000	1	1	16	1	1	0.039300	0
47	none	0.200000	0.002005	0.150000	100.000000	0.200000	0	1	17	1	1	0.529180	0
48	none	0.200000	0.003003	0.150000	100.000000	0.200000	0	0	30	0	1	0.200960	0
49	none	0.200000	0.000010	0.150000	100.000000	0.200000	0	0	0	0	1	0.489750	0
50	none	0.200000	0.003003	0.150000	100.000000	0.200000	1	0	3	0	1	0.139230	0
51	none	0.200000	0.004000	0.150000	100.000000	0.200000	1	0	22	0	1	0.104100	0
52	none	0.200000	0.004000	0.150000	100.000000	0.200000	0	0	33	0	1	0.166910	0
53	none	0.200000	0.002005	0.150000	100.000000	0.200000	0	0	22	0	1	0.230280	0
54	none	0.200000	0.004000	0.150000	100.000000	0.200000	1	1	12	1	1	0.048470	0
55	none	0.200000	0.004000	0.150000	100.000000	0.200000	0	1	26	1	1	0.053400	0
56	none	0.200000	0.003003	0.150000	100.000000	0.200000	1	1	10	1	1	0.060680	0
57	none	0.200000	0.001008	0.150000	100.000000	0.200000	1	0	27	0	1	0.040790	0
58	none	0.200000	0.000010	0.150000	100.000000	0.200000	0	1	5	0	0	0.040380	0
59	none	0.200000	0.004000	0.150000	100.000000	0.200000	0	1	29	1	1	0.099780	0
60	none	0.200000	0.001008	0.150000	100.000000	0.200000	0	0	8	1	0	0.761520	0
61	none	0.200000	0.003003	0.150000	100.000000	0.200000	1	0	20	0	1	0.114050	0
62	none	0.200000	0.003003	0.150000	100.000000	0.200000	0	0	6	0	1	0.015940	0
63	none	0.200000	0.001008	0.150000	100.000000	0.200000	0	1	25	1	1	0.478570	0
64	none	0.200000	0.000010	0.150000	100.000000	0.200000	0	1	27	0	0	0.162920	0
65	none	0.200000	0.002005	0.150000	100.000000	0.200000	1	0	13	0	1	0.278950	0
66	none	0.200000	0.004000	0.150000	100.000000	0.200000	0	0	12	0	1	0.118050	0
67	none	0.200000	0.001008	0.150000	100.000000	0.200000	0	1	7	1	1	0.469500	0
68	none	0.200000	0.003003	0.150000	100.000000	0.200000	1	1	38	1	1	0.458020	0
69	none	0.200000	0.001008	0.150000	100.000000	0.200000	1	1	11	0	0	0.198010	0
70	none	0.200000	0.003003	0.150000	100.000000	0.200000	1	1	11	1	1	0.242130	0
71	none	0.200000	0.002005	0.150000	100.000000	0.200000	0	1	25	0	0	0.132220	0
72	none	0.200000	0.004000	0.150000	100.000000	0.200000	1	0	12	0	1	0.061590	0
73	none	0.200000	0.003003	0.150000	100.000000	0.200000	1	0	16	0	1	0.130520	0
74	none	0.200000	0.001008	0.150000	100.000000	0.200000	0	1	38	1	1	0.451320	0
75	none	0.200000	0.000010	0.150000	100.000000	0.200000	0	1	16	1	1	0.440550	0
76	none	0.200000	0.002005	0.150000	100.000000	0.200000	1	1	35	1	1	0.268200	0
77	none	0.200000	0.002005	0.150000	100.000000	0.200000	1	0	37	0	1	0.360340	0
78	none	0.200000	0.000010	0.150000	100.000000	0.200000	1	1	4	1	1	0.542630	0
79	none	0.200000	0.001008	0.150000	100.000000	0.200000	0	0	15	0	1	0.101040	0
80	none	0.200000	0.001008	0.150000	100.000000	0.200000	0	1	24	1	1	0.384030	0
81	none	0.200000	0.003003	0.150000	100.000000	0.200000	0	0	10	0	1	0.142050	0
82	none	0.200000	0.004000	0.150000	100.000000	0.200000	1	0	28	0	1	0.057220	0
83	none	0.200000	0.001008	0.150000	100.000000	0.200000	0	0	28	1	0	0.127290	0
84	none	0.200000	0.001008	0.150000	100.000000	0.200000	1	0	3	0	1	0.387880	0
85	none	0.200000	0.001008	0.150000	100.000000	0.200000	0	1	8	1	1	0.405860	0
86	none	0.200000	0.002005	0.150000	100.000000	0.200000	1	1	1	0	0	0.056600	0
87	none	0.200000	0.000010	0.150000	100.000000	0.200000	0	0	26	0	1	0.508890	0
88	none	0.200000	0.000010	0.150000	100.000000	0.200000	1	0	18	0	1	1.091100	0
89	none	0.200000	0.003003	0.150000	100.000000	0.200000	1	0	34	0	1	0.666270	0
90	none	0.200000	0.001008	0.150000	100.000000	0.200000	1	1	33	0	0	0.182250	0
91	none	0.200000	0.002005	0.150000	100.000000	0.200000	1	1	15	1	1	0.116550	0
92	none	0.200000	0.001008	0.150000	100.000000	0.200000	0	0	9	0	1	0.129530	0
93	none	0.200000	0.000010	0.150000	100.000000	0.200000	0	1	8	0	0	0.150570	0
94	none	0.200000	0.000010	0.150000	100.000000	0.200000	1	0	15	0	1	0.348470	0
95	none	0.200000	0.001008	0.150000	100.000000	0.200000	0	1	28	0	0	0.579370	0
96	none	0.200000	0.000010	0.150000	100.000000	0.200000	1	1	21	0	0	0.212220	0
97	none	0.200000	0.001008	0.150000	100.000000	0.200000	0	1	26	1	1	0.375990	0
98	none	0.200000	0.002005	0.150000	100.000000	0.200000	1	1	10	1	1	0.340840	0
99	none	0.200000	0.002005	0.150000	100.000000	0.200000	0	0	1	1	0	0.241440	0
