trial	noise	noise_contrast	edge_contrast	edge_width	mean_lum	stim_time	rotID	transID	maskID	resp	correct	resptime	dropframes
0	white	0.200000	0.007505	0.950000	100.000000	0.200000	0	0	38	0	1	0.075600	0
1	white	0.200000	0.000010	0.950000	100.000000	0.200000	0	1	22	0	0	0.421370	0
2	white	0.200000	0.007505	0.950000	100.000000	0.200000	1	1	26	1	1	0.277310	0
3	white	0.200000	0.011252	0.950000	100.000000	0.200000	1	0	0	0	1	0.075300	0
4	white	0.200000	0.015000	0.950000	100.000000	0.200000	0	0	36	0	1	0.121670	0
5	white	0.200000	0.003757	0.950000	100.000000	0.200000	0	1	6	0	0	0.100620	0
6	white	0.200000	0.000010	0.950000	100.000000	0.200000	0	0	11	1	0	0.082130	0
7	white	0.200000	0.011252	0.950000	100.000000	0.200000	0	0	11	0	1	0.040990	0
8	white	0.200000	0.000010	0.950000	100.000000	0.200000	0	1	9	0	0	0.192250	0
9	white	0.200000	0.000010	0.950000	100.000000	0.200000	1	0	16	1	0	0.364830	0
10	white	0.200000	0.003757	0.950000	100.000000	0.200000	1	0	16	0	1	0.096300	0
11	white	0.200000	0.011252	0.950000	100.000000	0.200000	1	1	32	1	1	0.082500	0
12	white	0.200000	0.000010	0.950000	100.000000	0.200000	1	1	25	1	1	0.296470	0
13	white	0.200000	0.003757	0.950000	100.000000	0.200000	1	1	19	0	0	0.224270	0
14	white	0.200000	0.000010	0.950000	100.000000	0.200000	1	1	32	1	1	0.483990	0
15	white	0.200000	0.000010	0.950000	100.000000	0.200000	0	0	14	1	0	0.305550	0
16	white	0.200000	0.003757	0.950000	100.000000	0.200000	1	1	10	0	0	0.245350	0
17	white	0.200000	0.000010	0.950000	100.000000	0.200000	0	1	19	0	0	0.446220	0
18	white	0.200000	0.015000	0.950000	100.000000	0.200000	0	1	27	1	1	0.046160	0
19	white	0.200000	0.015000	0.950000	100.000000	0.200000	1	0	13	0	1	0.081360	0
20	white	0.200000	0.015000	0.950000	100.000000	0.200000	1	0	26	0	1	0.092790	0
21	white	0.200000	0.007505	0.950000	100.000000	0.200000	0	0	21	0	1	0.230090	0
22	white	0.200000	0.007505	0.950000	100.000000	0.200000	0	0	14	0	1	0.443240	0
23	white	0.200000	0.011252	0.950000	100.000000	0.200000	0	1	4	1	1	0.103610	0
24	white	0.200000	0.003757	0.950000	100.000000	0.200000	0	0	1	1	0	0.478810	0
25	white	0.200000	0.011252	0.950000	100.000000	0.200000	1	0	39	0	1	0.077470	0
26	white	0.200000	0.011252	0.950000	100.000000	0.200000	0	0	8	0	1	0.059060	0
27	white	0.200000	0.015000	0.950000	100.000000	0.200000	0	1	12	1	1	0.137170	0
28	white	0.200000	0.007505	0.950000	100.000000	0.200000	0	1	16	1	1	0.324610	0
29	white	0.200000	0.015000	0.950000	100.000000	0.200000	1	0	11	0	1	0.133370	0
30	white	0.200000	0.011252	0.950000	100.000000	0.200000	1	0	28	0	1	0.081130	0
31	white	0.200000	0.011252	0.950000	100.000000	0.200000	0	0	16	0	1	0.063600	0
32	white	0.200000	0.007505	0.950000	100.000000	0.200000	0	0	2	0	1	0.023650	0
33	white	0.200000	0.007505	0.950000	100.000000	0.200000	1	1	2	1	1	0.299880	0
34	white	0.200000	0.003757	0.950000	100.000000	0.200000	1	1	2	0	0	0.030150	0
35	white	0.200000	0.003757	0.950000	100.000000	0.200000	0	1	6	0	0	0.066610	0
36	white	0.200000	0.003757	0.950000	100.000000	0.200000	0	0	7	1	0	0.063980	0
37	white	0.200000	0.015000	0.950000	100.000000	0.200000	1	1	17	1	1	0.401700	0
38	white	0.200000	0.007505	0.950000	100.000000	0.200000	0	0	31	0	1	0.090780	0
39	white	0.200000	0.015000	0.950000	100.000000	0.200000	1	0	19	0	1	0.202680	0
40	white	0.200000	0.011252	0.950000	100.000000	0.200000	1	1	21	1	1	0.072860	0
41	white	0.200000	0.011252	0.950000	100.000000	0.200000	1	1	21	1	1	0.061760	0
42	white	0.200000	0.007505	0.950000	100.000000	0.200000	0	1	11	0	0	0.116730	0
43	white	0.200000	0.015000	0.950000	100.000000	0.200000	0	0	9	0	1	0.249580	0
44	white	0.200000	0.000010	0.950000	100.000000	0.200000	0	1	11	1	1	0.305720	0
45	white	0.200000	0.000010	0.950000	100.000000	0.200000	0	1	17	0	0	0.148040	0
46	white	0.200000	0.015000	0.950000	100.000000	0.200000	0	1	34	1	1	0.116660	0
47	white	0.200000	0.015000	0.950000	100.000000	0.200000	1	0	18	0	1	0.088790	0
48	white	0.200000	0.003757	0.950000	100.000000	0.200000	1	1	5	1	1	0.037090	0
49	white	0.200000	0.011252	0.950000	100.000000	0.200000	0	0	36	0	1	0.046950	0
50	white	0.200000	0.003757	0.950000	100.000000	0.200000	1	1	25	1	1	0.118990	0
51	white	0.200000	0.000010	0.950000	100.000000	0.200000	0	1	9	1	1	0.186540	0
52	white	0.200000	0.007505	0.950000	100.000000	0.200000	1	0	0	0	1	0.045020	0
53	white	0.200000	0.007505	0.950000	100.000000	0.200000	0	0	39	0	1	0.085830	0
54	white	0.200000	0.011252	0.950000	100.000000	0.200000	0	1	35	1	1	0.083020	0
55	white	0.200000	0.000010	0.950000	100.000000	0.200000	0	0	39	0	1	0.369000	0
56	white	0.200000	0.011252	0.950000	100.000000	0.200000	0	0	10	0	1	0.075990	0
57	white	0.200000	0.000010	0.950000	100.000000	0.200000	0	1	1	1	1	0.154180	0
58	white	0.200000	0.000010	0.950000	100.000000	0.200000	1	1	4	0	0	0.058320	0
59	white	0.200000	0.000010	0.950000	100.000000	0.200000	0	1	4	0	0	0.195510	0
60	white	0.200000	0.015000	0.950000	100.000000	0.200000	1	0	17	0	1	0.080780	1
61	white	0.200000	0.015000	0.950000	100.000000	0.200000	1	1	32	1	1	0.084240	0
62	white	0.200000	0.003757	0.950000	100.000000	0.200000	1	0	18	0	1	0.090020	0
63	white	0.200000	0.011252	0.950000	100.000000	0.200000	0	0	5	0	1	0.116560	0
64	white	0.200000	0.015000	0.950000	100.000000	0.200000	1	1	39	1	1	0.000460	0
65	white	0.200000	0.011252	0.950000	100.000000	0.200000	0	0	19	0	1	0.066060	0
66	white	0.200000	0.007505	0.950000	100.000000	0.200000	1	0	14	0	1	0.038420	0
67	white	0.200000	0.003757	0.950000	100.000000	0.200000	1	1	19	0	0	0.188940	0
68	white	0.200000	0.000010	0.950000	100.000000	0.200000	0	0	26	1	0	0.272210	0
69	white	0.200000	0.015000	0.950000	100.000000	0.200000	0	1	18	1	1	1.071590	0
70	white	0.200000	0.000010	0.950000	100.000000	0.200000	1	0	1	0	1	0.447260	0
71	white	0.200000	0.003757	0.950000	100.000000	0.200000	1	0	29	1	0	0.109290	0
72	white	0.200000	0.003757	0.950000	100.000000	0.200000	1	1	6	0	0	0.063040	0
73	white	0.200000	0.003757	0.950000	100.000000	0.200000	1	1	23	1	1	0.240290	0
74	white	0.200000	0.007505	0.950000	100.000000	0.200000	0	0	6	0	1	0.074860	0
75	white	0.200000	0.015000	0.950000	100.000000	0.200000	0	0	13	0	1	0.046040	0
76	white	0.200000	0.015000	0.950000	100.000000	0.200000	1	0	24	0	1	0.004770	0
77	white	0.200000	0.007505	0.950000	100.000000	0.200000	1	1	29	1	1	0.070780	0
78	white	0.200000	0.007505	0.950000	100.000000	0.200000	1	1	31	0	0	0.213690	0
79	white	0.200000	0.015000	0.950000	100.000000	0.200000	0	1	20	1	1	0.084090	0
80	white	0.200000	0.003757	0.950000	100.000000	0.200000	0	0	3	0	1	0.100050	0
81	white	0.200000	0.011252	0.950000	100.000000	0.200000	1	1	15	1	1	0.121040	0
82	white	0.200000	0.015000	0.950000	100.000000	0.200000	0	0	33	0	1	-0.001980	0
83	white	0.200000	0.000010	0.950000	100.000000	0.200000	0	1	13	0	0	0.272000	0
84	white	0.200000	0.011252	0.950000	100.000000	0.200000	0	0	17	0	1	0.067160	0
85	white	0.200000	0.007505	0.950000	100.000000	0.200000	0	1	34	1	1	0.060150	0
86	white	0.200000	0.003757	0.950000	100.000000	0.200000	1	1	11	0	0	0.249970	0
87	white	0.200000	0.000010	0.950000	100.000000	0.200000	0	1	34	1	1	0.098120	0
88	white	0.200000	0.003757	0.950000	100.000000	0.200000	0	0	16	1	0	0.508010	0
89	white	0.200000	0.015000	0.950000	100.000000	0.200000	0	1	30	1	1	0.704210	0
90	white	0.200000	0.003757	0.950000	100.000000	0.200000	1	1	2	1	1	0.590150	0
91	white	0.200000	0.000010	0.950000	100.000000	0.200000	1	0	4	0	1	0.099150	0
92	white	0.200000	0.011252	0.950000	100.000000	0.200000	1	1	16	1	1	0.029980	0
93	white	0.200000	0.011252	0.950000	100.000000	0.200000	0	1	36	1	1	0.041160	0
94	white	0.200000	0.007505	0.950000	100.000000	0.200000	1	1	0	0	0	0.165520	0
95	white	0.200000	0.003757	0.950000	100.000000	0.200000	1	1	38	1	1	0.075660	0
96	white	0.200000	0.007505	0.950000	100.000000	0.200000	1	1	15	1	1	0.059040	0
97	white	0.200000	0.011252	0.950000	100.000000	0.200000	1	1	27	1	1	0.139700	0
98	white	0.200000	0.007505	0.950000	100.000000	0.200000	0	1	7	0	0	0.132080	0
99	white	0.200000	0.007505	0.950000	100.000000	0.200000	1	0	28	0	1	0.212600	0
