trial	noise	noise_contrast	edge_contrast	edge_width	mean_lum	stim_time	rotID	transID	maskID	resp	correct	resptime	dropframes
0	none	0.200000	0.003753	0.950000	100.000000	0.200000	0	0	34	0	1	0.164700	0
1	none	0.200000	0.003753	0.950000	100.000000	0.200000	1	1	35	1	1	0.075720	0
2	none	0.200000	0.000010	0.950000	100.000000	0.200000	1	0	20	0	1	0.404500	0
3	none	0.200000	0.002505	0.950000	100.000000	0.200000	1	1	13	1	1	0.238170	0
4	none	0.200000	0.003753	0.950000	100.000000	0.200000	0	0	18	0	1	0.067470	0
5	none	0.200000	0.000010	0.950000	100.000000	0.200000	1	0	36	0	1	0.207270	0
6	none	0.200000	0.001258	0.950000	100.000000	0.200000	0	1	34	0	0	0.174730	0
7	none	0.200000	0.000010	0.950000	100.000000	0.200000	1	1	9	0	0	0.089010	0
8	none	0.200000	0.005000	0.950000	100.000000	0.200000	1	1	1	1	1	0.062540	0
9	none	0.200000	0.003753	0.950000	100.000000	0.200000	1	1	23	1	1	0.254410	0
10	none	0.200000	0.000010	0.950000	100.000000	0.200000	1	0	19	0	1	0.221590	0
11	none	0.200000	0.002505	0.950000	100.000000	0.200000	0	1	17	1	1	0.342850	0
12	none	0.200000	0.001258	0.950000	100.000000	0.200000	0	1	23	0	0	0.005740	0
13	none	0.200000	0.001258	0.950000	100.000000	0.200000	0	0	7	0	1	0.135180	0
14	none	0.200000	0.001258	0.950000	100.000000	0.200000	1	1	38	0	0	0.658800	0
15	none	0.200000	0.001258	0.950000	100.000000	0.200000	0	1	8	1	1	0.370290	0
16	none	0.200000	0.001258	0.950000	100.000000	0.200000	0	1	23	0	0	0.131730	0
17	none	0.200000	0.001258	0.950000	100.000000	0.200000	0	1	16	1	1	0.473040	0
18	none	0.200000	0.002505	0.950000	100.000000	0.200000	0	0	0	0	1	0.251560	0
19	none	0.200000	0.002505	0.950000	100.000000	0.200000	0	1	8	1	1	0.487680	0
20	none	0.200000	0.001258	0.950000	100.000000	0.200000	1	1	15	0	0	0.089030	0
21	none	0.200000	0.002505	0.950000	100.000000	0.200000	0	0	17	0	1	0.108840	0
22	none	0.200000	0.005000	0.950000	100.000000	0.200000	1	0	25	0	1	0.063210	0
23	none	0.200000	0.003753	0.950000	100.000000	0.200000	0	1	9	1	1	0.331710	0
24	none	0.200000	0.002505	0.950000	100.000000	0.200000	0	0	13	0	1	0.149180	0
25	none	0.200000	0.003753	0.950000	100.000000	0.200000	1	0	35	1	0	0.035040	0
26	none	0.200000	0.000010	0.950000	100.000000	0.200000	1	0	1	0	1	1.068060	0
27	none	0.200000	0.003753	0.950000	100.000000	0.200000	0	0	32	0	1	0.353310	0
28	none	0.200000	0.000010	0.950000	100.000000	0.200000	1	1	27	1	1	0.297080	0
29	none	0.200000	0.002505	0.950000	100.000000	0.200000	0	1	22	0	0	0.244940	0
30	none	0.200000	0.002505	0.950000	100.000000	0.200000	0	1	36	1	1	0.468970	0
31	none	0.200000	0.003753	0.950000	100.000000	0.200000	0	0	5	0	1	0.221180	0
32	none	0.200000	0.005000	0.950000	100.000000	0.200000	0	1	12	0	0	0.186180	0
33	none	0.200000	0.002505	0.950000	100.000000	0.200000	1	0	30	0	1	0.311580	1
34	none	0.200000	0.003753	0.950000	100.000000	0.200000	0	1	20	1	1	0.019740	0
35	none	0.200000	0.000010	0.950000	100.000000	0.200000	0	1	29	0	0	0.091630	0
36	none	0.200000	0.000010	0.950000	100.000000	0.200000	1	0	36	1	0	1.348520	0
37	none	0.200000	0.001258	0.950000	100.000000	0.200000	0	1	26	0	0	0.275740	0
38	none	0.200000	0.000010	0.950000	100.000000	0.200000	1	0	7	1	0	0.194830	0
39	none	0.200000	0.005000	0.950000	100.000000	0.200000	1	0	39	0	1	0.175260	0
40	none	0.200000	0.003753	0.950000	100.000000	0.200000	0	0	37	0	1	0.182230	0
41	none	0.200000	0.003753	0.950000	100.000000	0.200000	0	1	11	1	1	0.071910	0
42	none	0.200000	0.003753	0.950000	100.000000	0.200000	1	0	5	0	1	0.628020	0
43	none	0.200000	0.002505	0.950000	100.000000	0.200000	1	1	20	1	1	0.233030	0
44	none	0.200000	0.000010	0.950000	100.000000	0.200000	0	1	33	0	0	0.262800	0
45	none	0.200000	0.001258	0.950000	100.000000	0.200000	1	1	6	1	1	0.301660	0
46	none	0.200000	0.005000	0.950000	100.000000	0.200000	0	1	12	1	1	0.245630	0
47	none	0.200000	0.002505	0.950000	100.000000	0.200000	0	0	33	0	1	0.254030	0
48	none	0.200000	0.005000	0.950000	100.000000	0.200000	1	0	19	0	1	0.213810	0
49	none	0.200000	0.002505	0.950000	100.000000	0.200000	0	1	6	0	0	0.358040	0
50	none	0.200000	0.005000	0.950000	100.000000	0.200000	1	1	18	1	1	0.052340	0
51	none	0.200000	0.005000	0.950000	100.000000	0.200000	1	1	19	1	1	0.093610	0
52	none	0.200000	0.001258	0.950000	100.000000	0.200000	1	1	32	0	0	0.365600	0
53	none	0.200000	0.005000	0.950000	100.000000	0.200000	0	0	8	0	1	0.154330	0
54	none	0.200000	0.005000	0.950000	100.000000	0.200000	1	1	21	1	1	0.254880	0
55	none	0.200000	0.005000	0.950000	100.000000	0.200000	0	1	11	1	1	0.222220	0
56	none	0.200000	0.003753	0.950000	100.000000	0.200000	1	1	4	1	1	0.436200	0
57	none	0.200000	0.001258	0.950000	100.000000	0.200000	0	1	4	0	0	0.705460	0
58	none	0.200000	0.001258	0.950000	100.000000	0.200000	0	0	10	1	0	0.274600	0
59	none	0.200000	0.001258	0.950000	100.000000	0.200000	0	1	6	1	1	0.538380	0
60	none	0.200000	0.005000	0.950000	100.000000	0.200000	1	0	3	0	1	0.093510	0
61	none	0.200000	0.000010	0.950000	100.000000	0.200000	1	1	3	1	1	0.269820	0
62	none	0.200000	0.001258	0.950000	100.000000	0.200000	0	0	9	0	1	0.438760	0
63	none	0.200000	0.003753	0.950000	100.000000	0.200000	1	0	0	0	1	0.740810	0
64	none	0.200000	0.002505	0.950000	100.000000	0.200000	1	0	31	1	0	0.168160	0
65	none	0.200000	0.002505	0.950000	100.000000	0.200000	0	0	27	0	1	0.110480	0
66	none	0.200000	0.001258	0.950000	100.000000	0.200000	1	0	6	1	0	0.370610	0
67	none	0.200000	0.001258	0.950000	100.000000	0.200000	1	0	15	1	0	0.678970	0
68	none	0.200000	0.000010	0.950000	100.000000	0.200000	1	1	1	0	0	0.169310	0
69	none	0.200000	0.000010	0.950000	100.000000	0.200000	1	0	15	1	0	0.390350	0
70	none	0.200000	0.005000	0.950000	100.000000	0.200000	0	0	28	0	1	0.262730	0
71	none	0.200000	0.003753	0.950000	100.000000	0.200000	0	1	8	0	0	0.501510	0
72	none	0.200000	0.002505	0.950000	100.000000	0.200000	1	1	18	1	1	0.146470	0
73	none	0.200000	0.001258	0.950000	100.000000	0.200000	0	0	14	0	1	1.617350	0
74	none	0.200000	0.003753	0.950000	100.000000	0.200000	0	0	11	0	1	0.270400	0
75	none	0.200000	0.005000	0.950000	100.000000	0.200000	0	1	13	1	1	0.058860	0
76	none	0.200000	0.000010	0.950000	100.000000	0.200000	1	1	14	0	0	0.117980	0
77	none	0.200000	0.005000	0.950000	100.000000	0.200000	1	0	1	1	0	0.087760	0
78	none	0.200000	0.005000	0.950000	100.000000	0.200000	0	0	8	0	1	0.046920	0
79	none	0.200000	0.000010	0.950000	100.000000	0.200000	1	1	32	1	1	0.587670	0
80	none	0.200000	0.002505	0.950000	100.000000	0.200000	1	0	24	0	1	0.294450	0
81	none	0.200000	0.000010	0.950000	100.000000	0.200000	1	0	39	0	1	0.482990	0
82	none	0.200000	0.002505	0.950000	100.000000	0.200000	0	0	29	0	1	0.232390	0
83	none	0.200000	0.000010	0.950000	100.000000	0.200000	1	0	32	0	1	0.335140	0
84	none	0.200000	0.002505	0.950000	100.000000	0.200000	1	1	4	1	1	0.262410	0
85	none	0.200000	0.003753	0.950000	100.000000	0.200000	0	0	1	0	1	0.234980	0
86	none	0.200000	0.005000	0.950000	100.000000	0.200000	0	0	11	0	1	0.107330	0
87	none	0.200000	0.005000	0.950000	100.000000	0.200000	1	1	37	1	1	0.093830	0
88	none	0.200000	0.002505	0.950000	100.000000	0.200000	1	0	38	1	0	0.393510	0
89	none	0.200000	0.005000	0.950000	100.000000	0.200000	0	0	16	0	1	0.064080	0
90	none	0.200000	0.002505	0.950000	100.000000	0.200000	1	1	28	1	1	0.265900	0
91	none	0.200000	0.003753	0.950000	100.000000	0.200000	1	0	11	0	1	0.041930	0
92	none	0.200000	0.003753	0.950000	100.000000	0.200000	0	1	33	1	1	0.227590	0
93	none	0.200000	0.000010	0.950000	100.000000	0.200000	0	0	21	0	1	0.215990	0
94	none	0.200000	0.001258	0.950000	100.000000	0.200000	0	0	39	1	0	0.281410	0
95	none	0.200000	0.001258	0.950000	100.000000	0.200000	0	1	19	0	0	0.395560	0
96	none	0.200000	0.003753	0.950000	100.000000	0.200000	1	0	23	1	0	0.336020	0
97	none	0.200000	0.005000	0.950000	100.000000	0.200000	0	1	34	1	1	1.182950	0
98	none	0.200000	0.000010	0.950000	100.000000	0.200000	0	0	16	0	1	0.290680	0
99	none	0.200000	0.000010	0.950000	100.000000	0.200000	0	1	0	1	1	0.459120	0
