trial	noise	noise_contrast	edge_contrast	edge_width	mean_lum	stim_time	rotID	transID	maskID	resp	correct	resptime	dropframes
0	narrow0.5	0.200000	0.000010	0.048000	100.000000	0.200000	1	0	34	0	1	0.389250	0
1	narrow0.5	0.200000	0.001258	0.048000	100.000000	0.200000	1	1	5	1	1	0.133040	0
2	narrow0.5	0.200000	0.002505	0.048000	100.000000	0.200000	1	1	3	0	0	0.085090	0
3	narrow0.5	0.200000	0.001258	0.048000	100.000000	0.200000	1	1	32	1	1	0.208150	0
4	narrow0.5	0.200000	0.005000	0.048000	100.000000	0.200000	1	1	26	1	1	0.002710	0
5	narrow0.5	0.200000	0.000010	0.048000	100.000000	0.200000	0	1	23	0	0	0.103930	0
6	narrow0.5	0.200000	0.001258	0.048000	100.000000	0.200000	1	0	38	0	1	0.504760	0
7	narrow0.5	0.200000	0.003753	0.048000	100.000000	0.200000	0	0	29	1	0	0.038780	0
8	narrow0.5	0.200000	0.001258	0.048000	100.000000	0.200000	0	1	0	0	0	0.336530	0
9	narrow0.5	0.200000	0.000010	0.048000	100.000000	0.200000	1	0	34	0	1	0.481650	0
10	narrow0.5	0.200000	0.003753	0.048000	100.000000	0.200000	0	1	12	1	1	0.456190	0
11	narrow0.5	0.200000	0.000010	0.048000	100.000000	0.200000	1	0	30	0	1	0.522830	0
12	narrow0.5	0.200000	0.003753	0.048000	100.000000	0.200000	0	1	6	1	1	0.159500	0
13	narrow0.5	0.200000	0.003753	0.048000	100.000000	0.200000	0	0	0	0	1	0.213870	0
14	narrow0.5	0.200000	0.000010	0.048000	100.000000	0.200000	1	1	6	0	0	0.357040	0
15	narrow0.5	0.200000	0.003753	0.048000	100.000000	0.200000	0	0	10	0	1	0.177330	0
16	narrow0.5	0.200000	0.001258	0.048000	100.000000	0.200000	0	0	17	1	0	0.085850	0
17	narrow0.5	0.200000	0.002505	0.048000	100.000000	0.200000	0	0	31	0	1	0.177520	0
18	narrow0.5	0.200000	0.000010	0.048000	100.000000	0.200000	0	1	29	0	0	0.342260	0
19	narrow0.5	0.200000	0.005000	0.048000	100.000000	0.200000	1	1	39	1	1	0.085420	0
20	narrow0.5	0.200000	0.001258	0.048000	100.000000	0.200000	1	0	12	0	1	0.157230	0
21	narrow0.5	0.200000	0.005000	0.048000	100.000000	0.200000	0	0	33	0	1	0.260230	0
22	narrow0.5	0.200000	0.005000	0.048000	100.000000	0.200000	0	1	39	1	1	0.129280	0
23	narrow0.5	0.200000	0.001258	0.048000	100.000000	0.200000	0	1	18	0	0	0.790420	0
24	narrow0.5	0.200000	0.000010	0.048000	100.000000	0.200000	0	0	3	1	0	1.288200	0
25	narrow0.5	0.200000	0.002505	0.048000	100.000000	0.200000	1	0	36	0	1	0.102530	0
26	narrow0.5	0.200000	0.005000	0.048000	100.000000	0.200000	1	0	6	0	1	0.057190	0
27	narrow0.5	0.200000	0.005000	0.048000	100.000000	0.200000	1	1	0	1	1	0.100000	0
28	narrow0.5	0.200000	0.001258	0.048000	100.000000	0.200000	1	0	31	0	1	0.446650	0
29	narrow0.5	0.200000	0.001258	0.048000	100.000000	0.200000	0	1	7	1	1	0.296370	0
30	narrow0.5	0.200000	0.005000	0.048000	100.000000	0.200000	0	1	13	1	1	0.094800	0
31	narrow0.5	0.200000	0.002505	0.048000	100.000000	0.200000	1	1	10	1	1	0.170310	0
32	narrow0.5	0.200000	0.003753	0.048000	100.000000	0.200000	0	1	17	1	1	0.131240	0
33	narrow0.5	0.200000	0.005000	0.048000	100.000000	0.200000	1	1	12	1	1	0.103140	0
34	narrow0.5	0.200000	0.002505	0.048000	100.000000	0.200000	1	0	9	0	1	0.075180	0
35	narrow0.5	0.200000	0.000010	0.048000	100.000000	0.200000	1	0	9	0	1	0.099610	0
36	narrow0.5	0.200000	0.000010	0.048000	100.000000	0.200000	1	1	12	0	0	0.131520	0
37	narrow0.5	0.200000	0.005000	0.048000	100.000000	0.200000	1	0	11	0	1	0.138170	0
38	narrow0.5	0.200000	0.003753	0.048000	100.000000	0.200000	0	0	39	0	1	0.098030	0
39	narrow0.5	0.200000	0.003753	0.048000	100.000000	0.200000	1	1	21	1	1	0.106500	0
40	narrow0.5	0.200000	0.002505	0.048000	100.000000	0.200000	0	1	34	1	1	0.158920	0
41	narrow0.5	0.200000	0.003753	0.048000	100.000000	0.200000	0	1	20	1	1	0.144510	0
42	narrow0.5	0.200000	0.000010	0.048000	100.000000	0.200000	0	1	22	0	0	0.124790	0
43	narrow0.5	0.200000	0.001258	0.048000	100.000000	0.200000	0	0	36	1	0	0.240830	0
44	narrow0.5	0.200000	0.000010	0.048000	100.000000	0.200000	0	0	6	0	1	0.321400	0
45	narrow0.5	0.200000	0.000010	0.048000	100.000000	0.200000	0	0	8	1	0	0.390230	0
46	narrow0.5	0.200000	0.003753	0.048000	100.000000	0.200000	0	1	22	1	1	0.132910	0
47	narrow0.5	0.200000	0.002505	0.048000	100.000000	0.200000	1	0	9	0	1	0.123460	0
48	narrow0.5	0.200000	0.005000	0.048000	100.000000	0.200000	0	1	17	1	1	0.161540	0
49	narrow0.5	0.200000	0.003753	0.048000	100.000000	0.200000	0	1	6	1	1	0.073030	0
50	narrow0.5	0.200000	0.001258	0.048000	100.000000	0.200000	0	1	0	1	1	0.599300	0
51	narrow0.5	0.200000	0.001258	0.048000	100.000000	0.200000	0	0	14	0	1	0.297610	0
52	narrow0.5	0.200000	0.005000	0.048000	100.000000	0.200000	0	0	17	0	1	0.124970	0
53	narrow0.5	0.200000	0.002505	0.048000	100.000000	0.200000	1	1	4	1	1	0.078390	0
54	narrow0.5	0.200000	0.001258	0.048000	100.000000	0.200000	0	0	4	1	0	0.159620	0
55	narrow0.5	0.200000	0.003753	0.048000	100.000000	0.200000	0	1	5	1	1	0.207710	0
56	narrow0.5	0.200000	0.001258	0.048000	100.000000	0.200000	1	0	3	0	1	0.308150	0
57	narrow0.5	0.200000	0.001258	0.048000	100.000000	0.200000	0	1	17	0	0	0.165770	0
58	narrow0.5	0.200000	0.005000	0.048000	100.000000	0.200000	1	0	16	1	0	0.053890	0
59	narrow0.5	0.200000	0.000010	0.048000	100.000000	0.200000	0	0	20	0	1	0.062990	0
60	narrow0.5	0.200000	0.005000	0.048000	100.000000	0.200000	0	0	27	0	1	0.140110	0
61	narrow0.5	0.200000	0.000010	0.048000	100.000000	0.200000	0	1	10	0	0	0.509470	0
62	narrow0.5	0.200000	0.002505	0.048000	100.000000	0.200000	1	0	27	0	1	0.210600	0
63	narrow0.5	0.200000	0.002505	0.048000	100.000000	0.200000	1	0	23	0	1	1.177040	0
64	narrow0.5	0.200000	0.003753	0.048000	100.000000	0.200000	1	0	37	0	1	0.236210	0
65	narrow0.5	0.200000	0.000010	0.048000	100.000000	0.200000	1	1	7	1	1	0.403140	0
66	narrow0.5	0.200000	0.005000	0.048000	100.000000	0.200000	0	1	8	1	1	0.160290	0
67	narrow0.5	0.200000	0.002505	0.048000	100.000000	0.200000	0	0	16	1	0	0.642930	0
68	narrow0.5	0.200000	0.002505	0.048000	100.000000	0.200000	1	0	2	0	1	0.510380	0
69	narrow0.5	0.200000	0.001258	0.048000	100.000000	0.200000	0	1	38	1	1	0.331350	0
70	narrow0.5	0.200000	0.002505	0.048000	100.000000	0.200000	1	1	3	1	1	0.331480	0
71	narrow0.5	0.200000	0.005000	0.048000	100.000000	0.200000	1	1	10	1	1	0.154860	1
72	narrow0.5	0.200000	0.002505	0.048000	100.000000	0.200000	0	0	1	0	1	0.163380	0
73	narrow0.5	0.200000	0.001258	0.048000	100.000000	0.200000	1	1	13	0	0	0.898980	0
74	narrow0.5	0.200000	0.001258	0.048000	100.000000	0.200000	1	0	30	1	0	0.401970	0
75	narrow0.5	0.200000	0.003753	0.048000	100.000000	0.200000	1	1	15	1	1	0.144540	0
76	narrow0.5	0.200000	0.003753	0.048000	100.000000	0.200000	1	0	12	0	1	0.117830	0
77	narrow0.5	0.200000	0.000010	0.048000	100.000000	0.200000	1	1	4	0	0	0.144360	0
78	narrow0.5	0.200000	0.005000	0.048000	100.000000	0.200000	1	1	38	1	1	0.080640	0
79	narrow0.5	0.200000	0.005000	0.048000	100.000000	0.200000	1	1	17	1	1	0.101280	0
80	narrow0.5	0.200000	0.003753	0.048000	100.000000	0.200000	1	1	35	1	1	0.123780	0
81	narrow0.5	0.200000	0.003753	0.048000	100.000000	0.200000	1	0	37	0	1	0.192420	0
82	narrow0.5	0.200000	0.000010	0.048000	100.000000	0.200000	0	0	33	1	0	0.105940	0
83	narrow0.5	0.200000	0.000010	0.048000	100.000000	0.200000	0	0	10	0	1	0.139370	0
84	narrow0.5	0.200000	0.003753	0.048000	100.000000	0.200000	1	0	24	0	1	0.325500	0
85	narrow0.5	0.200000	0.003753	0.048000	100.000000	0.200000	0	0	30	0	1	0.124920	0
86	narrow0.5	0.200000	0.001258	0.048000	100.000000	0.200000	1	1	24	0	0	0.543390	0
87	narrow0.5	0.200000	0.005000	0.048000	100.000000	0.200000	0	0	1	0	1	0.118820	0
88	narrow0.5	0.200000	0.005000	0.048000	100.000000	0.200000	1	0	26	0	1	0.083120	0
89	narrow0.5	0.200000	0.002505	0.048000	100.000000	0.200000	0	0	35	0	1	0.364620	0
90	narrow0.5	0.200000	0.002505	0.048000	100.000000	0.200000	1	1	12	1	1	0.115210	0
91	narrow0.5	0.200000	0.001258	0.048000	100.000000	0.200000	1	0	39	0	1	0.208560	0
92	narrow0.5	0.200000	0.002505	0.048000	100.000000	0.200000	1	1	28	1	1	0.105230	0
93	narrow0.5	0.200000	0.002505	0.048000	100.000000	0.200000	1	0	2	0	1	0.179790	0
94	narrow0.5	0.200000	0.002505	0.048000	100.000000	0.200000	1	1	3	1	1	0.119890	0
95	narrow0.5	0.200000	0.005000	0.048000	100.000000	0.200000	1	0	5	0	1	0.061000	0
96	narrow0.5	0.200000	0.000010	0.048000	100.000000	0.200000	1	0	0	1	0	0.245550	0
97	narrow0.5	0.200000	0.003753	0.048000	100.000000	0.200000	1	1	24	1	1	0.118940	0
98	narrow0.5	0.200000	0.002505	0.048000	100.000000	0.200000	0	0	24	0	1	0.361030	0
99	narrow0.5	0.200000	0.000010	0.048000	100.000000	0.200000	1	0	38	0	1	0.431890	0
