trial	noise	noise_contrast	edge_contrast	edge_width	mean_lum	stim_time	rotID	transID	maskID	resp	correct	resptime	dropframes
0	narrow0.5	0.200000	0.000010	0.150000	100.000000	0.200000	0	1	2	0	0	0.934840	0
1	narrow0.5	0.200000	0.000010	0.150000	100.000000	0.200000	0	1	39	0	0	0.520800	0
2	narrow0.5	0.200000	0.003000	0.150000	100.000000	0.200000	1	0	10	0	1	0.217460	0
3	narrow0.5	0.200000	0.001505	0.150000	100.000000	0.200000	0	1	2	1	1	0.168100	0
4	narrow0.5	0.200000	0.000758	0.150000	100.000000	0.200000	1	0	13	0	1	0.690830	0
5	narrow0.5	0.200000	0.003000	0.150000	100.000000	0.200000	0	0	22	0	1	0.105810	0
6	narrow0.5	0.200000	0.002253	0.150000	100.000000	0.200000	1	1	25	1	1	0.100330	0
7	narrow0.5	0.200000	0.003000	0.150000	100.000000	0.200000	1	1	36	1	1	0.105840	0
8	narrow0.5	0.200000	0.000010	0.150000	100.000000	0.200000	1	0	31	1	0	0.922740	0
9	narrow0.5	0.200000	0.000758	0.150000	100.000000	0.200000	1	0	31	1	0	0.726830	0
10	narrow0.5	0.200000	0.000010	0.150000	100.000000	0.200000	1	1	23	1	1	0.476360	0
11	narrow0.5	0.200000	0.001505	0.150000	100.000000	0.200000	1	0	26	0	1	0.401500	0
12	narrow0.5	0.200000	0.000010	0.150000	100.000000	0.200000	0	1	10	0	0	0.834110	0
13	narrow0.5	0.200000	0.003000	0.150000	100.000000	0.200000	1	1	39	1	1	0.039460	0
14	narrow0.5	0.200000	0.003000	0.150000	100.000000	0.200000	1	0	2	0	1	0.107270	0
15	narrow0.5	0.200000	0.003000	0.150000	100.000000	0.200000	1	1	24	1	1	0.162810	0
16	narrow0.5	0.200000	0.000010	0.150000	100.000000	0.200000	1	1	7	1	1	0.588060	0
17	narrow0.5	0.200000	0.001505	0.150000	100.000000	0.200000	0	0	30	0	1	0.167960	0
18	narrow0.5	0.200000	0.003000	0.150000	100.000000	0.200000	1	0	35	0	1	0.133610	0
19	narrow0.5	0.200000	0.001505	0.150000	100.000000	0.200000	1	0	23	0	1	0.301130	0
20	narrow0.5	0.200000	0.002253	0.150000	100.000000	0.200000	0	0	35	0	1	0.158680	0
21	narrow0.5	0.200000	0.000758	0.150000	100.000000	0.200000	1	0	33	0	1	0.422710	0
22	narrow0.5	0.200000	0.002253	0.150000	100.000000	0.200000	0	0	12	0	1	0.134630	0
23	narrow0.5	0.200000	0.003000	0.150000	100.000000	0.200000	1	0	25	0	1	0.137510	0
24	narrow0.5	0.200000	0.000010	0.150000	100.000000	0.200000	1	1	0	1	1	0.365830	0
25	narrow0.5	0.200000	0.000758	0.150000	100.000000	0.200000	0	0	19	1	0	0.356150	0
26	narrow0.5	0.200000	0.001505	0.150000	100.000000	0.200000	0	0	6	0	1	0.191720	0
27	narrow0.5	0.200000	0.001505	0.150000	100.000000	0.200000	0	1	6	1	1	0.220590	0
28	narrow0.5	0.200000	0.001505	0.150000	100.000000	0.200000	1	1	12	1	1	0.147650	0
29	narrow0.5	0.200000	0.000010	0.150000	100.000000	0.200000	1	0	34	1	0	0.671850	0
30	narrow0.5	0.200000	0.002253	0.150000	100.000000	0.200000	0	0	24	0	1	0.124300	0
31	narrow0.5	0.200000	0.000010	0.150000	100.000000	0.200000	0	0	18	0	1	0.384480	0
32	narrow0.5	0.200000	0.000010	0.150000	100.000000	0.200000	0	0	5	0	1	0.638020	0
33	narrow0.5	0.200000	0.000010	0.150000	100.000000	0.200000	0	1	27	0	0	0.525810	0
34	narrow0.5	0.200000	0.003000	0.150000	100.000000	0.200000	1	0	20	0	1	0.156440	0
35	narrow0.5	0.200000	0.003000	0.150000	100.000000	0.200000	0	1	23	1	1	0.129140	0
36	narrow0.5	0.200000	0.003000	0.150000	100.000000	0.200000	1	1	17	1	1	0.096200	0
37	narrow0.5	0.200000	0.000010	0.150000	100.000000	0.200000	1	0	8	1	0	0.610820	0
38	narrow0.5	0.200000	0.000010	0.150000	100.000000	0.200000	1	1	16	0	0	0.447110	0
39	narrow0.5	0.200000	0.001505	0.150000	100.000000	0.200000	0	0	6	0	1	0.212590	0
40	narrow0.5	0.200000	0.001505	0.150000	100.000000	0.200000	1	0	8	0	1	0.255790	0
41	narrow0.5	0.200000	0.001505	0.150000	100.000000	0.200000	0	0	38	0	1	0.229730	0
42	narrow0.5	0.200000	0.000010	0.150000	100.000000	0.200000	1	0	38	1	0	0.683920	0
43	narrow0.5	0.200000	0.000758	0.150000	100.000000	0.200000	1	0	38	0	1	0.511490	0
44	narrow0.5	0.200000	0.000010	0.150000	100.000000	0.200000	1	1	38	1	1	0.545010	0
45	narrow0.5	0.200000	0.000758	0.150000	100.000000	0.200000	1	1	2	0	0	0.556730	0
46	narrow0.5	0.200000	0.003000	0.150000	100.000000	0.200000	1	1	18	1	1	0.165020	0
47	narrow0.5	0.200000	0.000758	0.150000	100.000000	0.200000	1	0	8	0	1	0.548520	0
48	narrow0.5	0.200000	0.002253	0.150000	100.000000	0.200000	0	0	1	0	1	0.164660	0
49	narrow0.5	0.200000	0.001505	0.150000	100.000000	0.200000	1	1	34	1	1	0.458980	0
50	narrow0.5	0.200000	0.000010	0.150000	100.000000	0.200000	1	1	21	0	0	0.380820	0
51	narrow0.5	0.200000	0.000758	0.150000	100.000000	0.200000	0	1	24	1	1	0.443890	0
52	narrow0.5	0.200000	0.001505	0.150000	100.000000	0.200000	0	0	22	0	1	0.199910	0
53	narrow0.5	0.200000	0.001505	0.150000	100.000000	0.200000	1	1	20	1	1	0.231130	0
54	narrow0.5	0.200000	0.000758	0.150000	100.000000	0.200000	0	1	16	1	1	0.757900	0
55	narrow0.5	0.200000	0.002253	0.150000	100.000000	0.200000	1	1	19	1	1	0.103400	0
56	narrow0.5	0.200000	0.000758	0.150000	100.000000	0.200000	1	1	8	0	0	0.484190	0
57	narrow0.5	0.200000	0.001505	0.150000	100.000000	0.200000	1	0	22	0	1	0.280060	0
58	narrow0.5	0.200000	0.000758	0.150000	100.000000	0.200000	1	0	8	0	1	0.834260	0
59	narrow0.5	0.200000	0.003000	0.150000	100.000000	0.200000	1	1	26	1	1	0.319610	0
60	narrow0.5	0.200000	0.000758	0.150000	100.000000	0.200000	1	1	5	1	1	0.672820	0
61	narrow0.5	0.200000	0.003000	0.150000	100.000000	0.200000	1	1	14	1	1	0.158150	0
62	narrow0.5	0.200000	0.002253	0.150000	100.000000	0.200000	0	1	17	1	1	0.140430	0
63	narrow0.5	0.200000	0.000010	0.150000	100.000000	0.200000	1	0	25	1	0	0.742060	0
64	narrow0.5	0.200000	0.002253	0.150000	100.000000	0.200000	1	1	37	1	1	0.170480	0
65	narrow0.5	0.200000	0.002253	0.150000	100.000000	0.200000	0	0	38	0	1	0.291140	0
66	narrow0.5	0.200000	0.002253	0.150000	100.000000	0.200000	0	1	9	1	1	0.154380	0
67	narrow0.5	0.200000	0.003000	0.150000	100.000000	0.200000	0	1	23	1	1	0.076740	0
68	narrow0.5	0.200000	0.000758	0.150000	100.000000	0.200000	1	1	20	1	1	0.426080	0
69	narrow0.5	0.200000	0.002253	0.150000	100.000000	0.200000	1	1	23	1	1	0.155850	0
70	narrow0.5	0.200000	0.003000	0.150000	100.000000	0.200000	1	1	19	1	1	0.339860	0
71	narrow0.5	0.200000	0.000758	0.150000	100.000000	0.200000	0	1	27	1	1	0.510770	0
72	narrow0.5	0.200000	0.002253	0.150000	100.000000	0.200000	0	1	4	1	1	0.138530	0
73	narrow0.5	0.200000	0.001505	0.150000	100.000000	0.200000	0	1	20	1	1	0.259160	0
74	narrow0.5	0.200000	0.002253	0.150000	100.000000	0.200000	1	1	4	1	1	0.129650	0
75	narrow0.5	0.200000	0.000758	0.150000	100.000000	0.200000	1	1	3	0	0	0.663490	0
76	narrow0.5	0.200000	0.002253	0.150000	100.000000	0.200000	1	1	15	1	1	0.136320	0
77	narrow0.5	0.200000	0.000758	0.150000	100.000000	0.200000	0	0	34	0	1	0.398890	0
78	narrow0.5	0.200000	0.003000	0.150000	100.000000	0.200000	0	0	33	0	1	0.165990	0
79	narrow0.5	0.200000	0.003000	0.150000	100.000000	0.200000	0	0	6	0	1	0.182500	0
80	narrow0.5	0.200000	0.003000	0.150000	100.000000	0.200000	0	1	25	1	1	0.350160	0
81	narrow0.5	0.200000	0.000758	0.150000	100.000000	0.200000	1	0	26	1	0	0.356600	0
82	narrow0.5	0.200000	0.000758	0.150000	100.000000	0.200000	0	0	13	1	0	0.379520	0
83	narrow0.5	0.200000	0.000010	0.150000	100.000000	0.200000	0	0	10	0	1	0.432400	0
84	narrow0.5	0.200000	0.002253	0.150000	100.000000	0.200000	1	1	5	1	1	0.088990	0
85	narrow0.5	0.200000	0.002253	0.150000	100.000000	0.200000	1	1	5	1	1	0.066040	0
86	narrow0.5	0.200000	0.000010	0.150000	100.000000	0.200000	0	1	13	0	0	0.517850	0
87	narrow0.5	0.200000	0.001505	0.150000	100.000000	0.200000	1	0	0	0	1	0.101500	0
88	narrow0.5	0.200000	0.003000	0.150000	100.000000	0.200000	1	0	31	0	1	0.131820	0
89	narrow0.5	0.200000	0.002253	0.150000	100.000000	0.200000	0	1	29	1	1	0.130960	0
90	narrow0.5	0.200000	0.001505	0.150000	100.000000	0.200000	0	1	1	1	1	0.326890	0
91	narrow0.5	0.200000	0.002253	0.150000	100.000000	0.200000	0	1	18	1	1	0.208430	0
92	narrow0.5	0.200000	0.002253	0.150000	100.000000	0.200000	1	0	15	0	1	0.147080	0
93	narrow0.5	0.200000	0.001505	0.150000	100.000000	0.200000	0	0	37	0	1	0.171910	0
94	narrow0.5	0.200000	0.000010	0.150000	100.000000	0.200000	1	1	1	0	0	0.584960	0
95	narrow0.5	0.200000	0.001505	0.150000	100.000000	0.200000	1	0	35	0	1	0.215990	0
96	narrow0.5	0.200000	0.001505	0.150000	100.000000	0.200000	0	1	12	1	1	0.123190	0
97	narrow0.5	0.200000	0.000758	0.150000	100.000000	0.200000	1	1	4	1	1	0.576520	0
98	narrow0.5	0.200000	0.002253	0.150000	100.000000	0.200000	0	1	36	1	1	0.111900	0
99	narrow0.5	0.200000	0.000758	0.150000	100.000000	0.200000	1	0	4	0	1	0.451500	0
