trial	noise	noise_contrast	edge_contrast	edge_width	mean_lum	stim_time	rotID	transID	maskID	resp	correct	resptime	dropframes
0	white	0.200000	0.011252	0.048000	100.000000	0.200000	0	1	36	1	1	0.275170	0
1	white	0.200000	0.007505	0.048000	100.000000	0.200000	1	0	10	0	1	0.362650	0
2	white	0.200000	0.000010	0.048000	100.000000	0.200000	0	0	1	1	0	0.332280	0
3	white	0.200000	0.000010	0.048000	100.000000	0.200000	1	0	28	1	0	0.332030	0
4	white	0.200000	0.007505	0.048000	100.000000	0.200000	1	0	27	0	1	0.108210	0
5	white	0.200000	0.015000	0.048000	100.000000	0.200000	0	0	22	0	1	0.096500	0
6	white	0.200000	0.015000	0.048000	100.000000	0.200000	0	1	20	1	1	0.086560	0
7	white	0.200000	0.000010	0.048000	100.000000	0.200000	0	0	10	1	0	0.629420	0
8	white	0.200000	0.000010	0.048000	100.000000	0.200000	0	0	17	0	1	0.323110	0
9	white	0.200000	0.000010	0.048000	100.000000	0.200000	0	1	14	0	0	0.833710	0
10	white	0.200000	0.003757	0.048000	100.000000	0.200000	1	1	16	0	0	0.391810	0
11	white	0.200000	0.015000	0.048000	100.000000	0.200000	1	0	18	0	1	0.158370	0
12	white	0.200000	0.015000	0.048000	100.000000	0.200000	1	1	1	1	1	0.027980	0
13	white	0.200000	0.000010	0.048000	100.000000	0.200000	0	0	30	0	1	0.540780	0
14	white	0.200000	0.011252	0.048000	100.000000	0.200000	1	0	1	0	1	0.149460	0
15	white	0.200000	0.007505	0.048000	100.000000	0.200000	0	0	6	0	1	0.193620	0
16	white	0.200000	0.007505	0.048000	100.000000	0.200000	0	0	6	0	1	0.288550	0
17	white	0.200000	0.007505	0.048000	100.000000	0.200000	1	0	38	0	1	0.371950	0
18	white	0.200000	0.011252	0.048000	100.000000	0.200000	1	1	23	1	1	0.269890	0
19	white	0.200000	0.000010	0.048000	100.000000	0.200000	1	0	22	0	1	0.560360	0
20	white	0.200000	0.003757	0.048000	100.000000	0.200000	0	0	9	0	1	0.653830	0
21	white	0.200000	0.000010	0.048000	100.000000	0.200000	1	0	31	1	0	0.410070	0
22	white	0.200000	0.007505	0.048000	100.000000	0.200000	0	0	22	0	1	0.182950	0
23	white	0.200000	0.003757	0.048000	100.000000	0.200000	1	0	2	0	1	0.382590	0
24	white	0.200000	0.007505	0.048000	100.000000	0.200000	0	0	0	0	1	0.411600	0
25	white	0.200000	0.011252	0.048000	100.000000	0.200000	1	1	29	1	1	0.106650	0
26	white	0.200000	0.003757	0.048000	100.000000	0.200000	1	1	22	0	0	0.800700	0
27	white	0.200000	0.007505	0.048000	100.000000	0.200000	0	1	9	1	1	0.051110	0
28	white	0.200000	0.011252	0.048000	100.000000	0.200000	0	1	32	1	1	0.053430	0
29	white	0.200000	0.015000	0.048000	100.000000	0.200000	1	0	23	0	1	0.144010	0
30	white	0.200000	0.003757	0.048000	100.000000	0.200000	1	0	25	0	1	0.283530	0
31	white	0.200000	0.000010	0.048000	100.000000	0.200000	0	1	37	1	1	0.771290	0
32	white	0.200000	0.000010	0.048000	100.000000	0.200000	1	0	34	1	0	1.078460	0
33	white	0.200000	0.011252	0.048000	100.000000	0.200000	0	0	0	0	1	0.076610	0
34	white	0.200000	0.011252	0.048000	100.000000	0.200000	0	1	23	1	1	0.150890	0
35	white	0.200000	0.011252	0.048000	100.000000	0.200000	1	0	3	0	1	0.121080	0
36	white	0.200000	0.003757	0.048000	100.000000	0.200000	0	1	11	0	0	0.568650	0
37	white	0.200000	0.000010	0.048000	100.000000	0.200000	1	0	11	0	1	0.511680	0
38	white	0.200000	0.011252	0.048000	100.000000	0.200000	1	1	8	1	1	0.254210	0
39	white	0.200000	0.007505	0.048000	100.000000	0.200000	1	0	37	0	1	0.265440	0
40	white	0.200000	0.015000	0.048000	100.000000	0.200000	0	1	13	1	1	0.293440	0
41	white	0.200000	0.000010	0.048000	100.000000	0.200000	1	1	34	1	1	0.601520	0
42	white	0.200000	0.007505	0.048000	100.000000	0.200000	0	1	6	1	1	0.140540	0
43	white	0.200000	0.015000	0.048000	100.000000	0.200000	0	0	10	0	1	0.081780	0
44	white	0.200000	0.015000	0.048000	100.000000	0.200000	0	1	28	1	1	0.119180	0
45	white	0.200000	0.003757	0.048000	100.000000	0.200000	1	0	1	1	0	0.612120	0
46	white	0.200000	0.003757	0.048000	100.000000	0.200000	0	0	39	1	0	0.425190	0
47	white	0.200000	0.011252	0.048000	100.000000	0.200000	0	0	34	0	1	0.195050	0
48	white	0.200000	0.003757	0.048000	100.000000	0.200000	1	0	14	0	1	0.498530	0
49	white	0.200000	0.007505	0.048000	100.000000	0.200000	0	1	0	1	1	0.272720	0
50	white	0.200000	0.003757	0.048000	100.000000	0.200000	0	0	7	1	0	0.277770	0
51	white	0.200000	0.003757	0.048000	100.000000	0.200000	1	0	10	1	0	0.657350	0
52	white	0.200000	0.015000	0.048000	100.000000	0.200000	0	0	11	0	1	0.243050	0
53	white	0.200000	0.000010	0.048000	100.000000	0.200000	1	0	5	1	0	1.291520	0
54	white	0.200000	0.011252	0.048000	100.000000	0.200000	0	1	35	1	1	0.142910	0
55	white	0.200000	0.015000	0.048000	100.000000	0.200000	1	0	37	0	1	0.201350	0
56	white	0.200000	0.000010	0.048000	100.000000	0.200000	0	0	3	0	1	0.801290	0
57	white	0.200000	0.015000	0.048000	100.000000	0.200000	0	0	27	0	1	0.113830	0
58	white	0.200000	0.015000	0.048000	100.000000	0.200000	1	0	15	0	1	0.142290	0
59	white	0.200000	0.007505	0.048000	100.000000	0.200000	1	1	30	1	1	0.187430	0
60	white	0.200000	0.007505	0.048000	100.000000	0.200000	0	1	14	1	1	0.158030	0
61	white	0.200000	0.000010	0.048000	100.000000	0.200000	0	0	24	0	1	0.722860	0
62	white	0.200000	0.000010	0.048000	100.000000	0.200000	0	1	22	1	1	0.407810	0
63	white	0.200000	0.003757	0.048000	100.000000	0.200000	1	1	31	0	0	0.905490	0
64	white	0.200000	0.015000	0.048000	100.000000	0.200000	1	0	5	0	1	0.350790	0
65	white	0.200000	0.003757	0.048000	100.000000	0.200000	1	0	22	0	1	0.731080	0
66	white	0.200000	0.007505	0.048000	100.000000	0.200000	0	0	36	1	0	0.385000	0
67	white	0.200000	0.007505	0.048000	100.000000	0.200000	0	1	19	1	1	0.289590	0
68	white	0.200000	0.003757	0.048000	100.000000	0.200000	0	1	14	1	1	0.376960	0
69	white	0.200000	0.015000	0.048000	100.000000	0.200000	1	0	0	0	1	0.089080	0
70	white	0.200000	0.011252	0.048000	100.000000	0.200000	0	1	8	1	1	0.179150	0
71	white	0.200000	0.015000	0.048000	100.000000	0.200000	0	0	27	0	1	0.060520	0
72	white	0.200000	0.015000	0.048000	100.000000	0.200000	1	0	24	0	1	0.103310	0
73	white	0.200000	0.011252	0.048000	100.000000	0.200000	0	1	17	1	1	0.360750	0
74	white	0.200000	0.007505	0.048000	100.000000	0.200000	1	0	11	1	0	0.690440	0
75	white	0.200000	0.003757	0.048000	100.000000	0.200000	1	1	30	0	0	1.067020	0
76	white	0.200000	0.007505	0.048000	100.000000	0.200000	1	0	14	0	1	0.644590	0
77	white	0.200000	0.015000	0.048000	100.000000	0.200000	1	0	13	0	1	0.095360	0
78	white	0.200000	0.011252	0.048000	100.000000	0.200000	1	0	0	0	1	0.064930	0
79	white	0.200000	0.000010	0.048000	100.000000	0.200000	0	0	10	0	1	0.801860	0
80	white	0.200000	0.000010	0.048000	100.000000	0.200000	0	0	2	0	1	0.457980	0
81	white	0.200000	0.015000	0.048000	100.000000	0.200000	0	1	36	1	1	0.071320	0
82	white	0.200000	0.003757	0.048000	100.000000	0.200000	1	1	15	1	1	0.538530	0
83	white	0.200000	0.011252	0.048000	100.000000	0.200000	1	1	17	1	1	0.111200	0
84	white	0.200000	0.003757	0.048000	100.000000	0.200000	0	1	21	0	0	0.826700	0
85	white	0.200000	0.011252	0.048000	100.000000	0.200000	1	1	18	1	1	0.035260	0
86	white	0.200000	0.003757	0.048000	100.000000	0.200000	1	0	9	0	1	0.767760	0
87	white	0.200000	0.000010	0.048000	100.000000	0.200000	1	0	20	0	1	0.251560	0
88	white	0.200000	0.011252	0.048000	100.000000	0.200000	0	1	28	1	1	0.080050	0
89	white	0.200000	0.007505	0.048000	100.000000	0.200000	0	1	20	1	1	0.494280	0
90	white	0.200000	0.007505	0.048000	100.000000	0.200000	0	1	34	1	1	0.154640	0
91	white	0.200000	0.015000	0.048000	100.000000	0.200000	1	1	11	1	1	0.131410	0
92	white	0.200000	0.015000	0.048000	100.000000	0.200000	1	0	21	0	1	0.166170	0
93	white	0.200000	0.003757	0.048000	100.000000	0.200000	0	0	14	0	1	0.509130	0
94	white	0.200000	0.003757	0.048000	100.000000	0.200000	1	1	38	0	0	0.941910	0
95	white	0.200000	0.011252	0.048000	100.000000	0.200000	1	1	1	1	1	0.088060	0
96	white	0.200000	0.011252	0.048000	100.000000	0.200000	0	1	36	1	1	0.093910	0
97	white	0.200000	0.000010	0.048000	100.000000	0.200000	0	1	33	1	1	0.274590	0
98	white	0.200000	0.007505	0.048000	100.000000	0.200000	1	0	10	0	1	0.189900	0
99	white	0.200000	0.011252	0.048000	100.000000	0.200000	1	0	24	0	1	0.143230	0
