trial	noise	noise_contrast	edge_contrast	edge_width	mean_lum	stim_time	rotID	transID	maskID	resp	correct	resptime	dropframes
0	narrow0.5	0.200000	0.003755	0.950000	100.000000	0.200000	1	0	19	0	1	0.310800	0
1	narrow0.5	0.200000	0.007500	0.950000	100.000000	0.200000	0	1	7	1	1	0.185480	0
2	narrow0.5	0.200000	0.005627	0.950000	100.000000	0.200000	0	1	2	1	1	0.145800	0
3	narrow0.5	0.200000	0.003755	0.950000	100.000000	0.200000	1	1	1	0	0	0.456670	0
4	narrow0.5	0.200000	0.005627	0.950000	100.000000	0.200000	0	1	3	1	1	0.106430	0
5	narrow0.5	0.200000	0.007500	0.950000	100.000000	0.200000	0	0	30	0	1	0.081060	0
6	narrow0.5	0.200000	0.001883	0.950000	100.000000	0.200000	1	1	26	0	0	0.675520	0
7	narrow0.5	0.200000	0.003755	0.950000	100.000000	0.200000	1	1	5	1	1	0.112610	0
8	narrow0.5	0.200000	0.007500	0.950000	100.000000	0.200000	1	0	4	0	1	0.135470	0
9	narrow0.5	0.200000	0.001883	0.950000	100.000000	0.200000	1	1	22	0	0	0.581170	0
10	narrow0.5	0.200000	0.003755	0.950000	100.000000	0.200000	1	1	26	1	1	0.159100	0
11	narrow0.5	0.200000	0.007500	0.950000	100.000000	0.200000	0	0	16	0	1	0.110560	0
12	narrow0.5	0.200000	0.000010	0.950000	100.000000	0.200000	0	0	13	0	1	0.507180	0
13	narrow0.5	0.200000	0.001883	0.950000	100.000000	0.200000	0	1	27	0	0	0.362660	0
14	narrow0.5	0.200000	0.003755	0.950000	100.000000	0.200000	1	1	38	1	1	0.236010	0
15	narrow0.5	0.200000	0.001883	0.950000	100.000000	0.200000	0	1	4	0	0	0.292210	0
16	narrow0.5	0.200000	0.005627	0.950000	100.000000	0.200000	1	1	29	1	1	0.138730	0
17	narrow0.5	0.200000	0.001883	0.950000	100.000000	0.200000	0	1	39	0	0	0.568110	0
18	narrow0.5	0.200000	0.000010	0.950000	100.000000	0.200000	0	1	8	1	1	0.838340	0
19	narrow0.5	0.200000	0.001883	0.950000	100.000000	0.200000	1	1	6	0	0	0.365090	0
20	narrow0.5	0.200000	0.007500	0.950000	100.000000	0.200000	0	0	1	0	1	0.303620	0
21	narrow0.5	0.200000	0.003755	0.950000	100.000000	0.200000	0	0	26	0	1	0.144470	0
22	narrow0.5	0.200000	0.000010	0.950000	100.000000	0.200000	0	0	13	0	1	0.343130	0
23	narrow0.5	0.200000	0.005627	0.950000	100.000000	0.200000	1	0	8	0	1	0.195220	0
24	narrow0.5	0.200000	0.001883	0.950000	100.000000	0.200000	1	0	19	0	1	0.393520	0
25	narrow0.5	0.200000	0.007500	0.950000	100.000000	0.200000	1	1	3	1	1	0.125220	0
26	narrow0.5	0.200000	0.000010	0.950000	100.000000	0.200000	1	1	5	1	1	0.519900	0
27	narrow0.5	0.200000	0.003755	0.950000	100.000000	0.200000	0	0	10	0	1	0.051850	0
28	narrow0.5	0.200000	0.000010	0.950000	100.000000	0.200000	0	0	37	0	1	0.290180	0
29	narrow0.5	0.200000	0.001883	0.950000	100.000000	0.200000	1	1	34	0	0	0.779420	0
30	narrow0.5	0.200000	0.007500	0.950000	100.000000	0.200000	1	0	4	0	1	0.257550	0
31	narrow0.5	0.200000	0.003755	0.950000	100.000000	0.200000	0	1	33	1	1	0.177230	0
32	narrow0.5	0.200000	0.003755	0.950000	100.000000	0.200000	0	0	0	0	1	0.248040	0
33	narrow0.5	0.200000	0.000010	0.950000	100.000000	0.200000	0	0	11	0	1	0.391590	0
34	narrow0.5	0.200000	0.003755	0.950000	100.000000	0.200000	0	0	17	0	1	0.209510	0
35	narrow0.5	0.200000	0.005627	0.950000	100.000000	0.200000	0	1	3	1	1	0.074950	0
36	narrow0.5	0.200000	0.001883	0.950000	100.000000	0.200000	0	1	15	1	1	0.643600	0
37	narrow0.5	0.200000	0.000010	0.950000	100.000000	0.200000	1	1	29	0	0	0.589420	0
38	narrow0.5	0.200000	0.000010	0.950000	100.000000	0.200000	1	1	26	0	0	0.559550	0
39	narrow0.5	0.200000	0.000010	0.950000	100.000000	0.200000	1	1	16	0	0	0.637440	0
40	narrow0.5	0.200000	0.005627	0.950000	100.000000	0.200000	1	1	34	1	1	0.135100	0
41	narrow0.5	0.200000	0.001883	0.950000	100.000000	0.200000	1	0	14	0	1	0.339510	0
42	narrow0.5	0.200000	0.007500	0.950000	100.000000	0.200000	0	0	23	0	1	0.125770	0
43	narrow0.5	0.200000	0.003755	0.950000	100.000000	0.200000	1	0	27	0	1	0.184050	0
44	narrow0.5	0.200000	0.001883	0.950000	100.000000	0.200000	0	0	16	1	0	0.591190	0
45	narrow0.5	0.200000	0.005627	0.950000	100.000000	0.200000	1	1	25	1	1	0.137100	0
46	narrow0.5	0.200000	0.005627	0.950000	100.000000	0.200000	0	1	34	1	1	0.296770	0
47	narrow0.5	0.200000	0.005627	0.950000	100.000000	0.200000	0	0	16	0	1	0.095870	0
48	narrow0.5	0.200000	0.003755	0.950000	100.000000	0.200000	0	1	13	1	1	0.140660	0
49	narrow0.5	0.200000	0.000010	0.950000	100.000000	0.200000	1	1	18	0	0	0.400510	0
50	narrow0.5	0.200000	0.007500	0.950000	100.000000	0.200000	1	0	9	0	1	0.136940	0
51	narrow0.5	0.200000	0.001883	0.950000	100.000000	0.200000	1	1	23	0	0	0.593380	0
52	narrow0.5	0.200000	0.000010	0.950000	100.000000	0.200000	1	0	38	0	1	1.395740	0
53	narrow0.5	0.200000	0.005627	0.950000	100.000000	0.200000	0	0	36	0	1	0.182340	0
54	narrow0.5	0.200000	0.000010	0.950000	100.000000	0.200000	1	1	14	1	1	0.165530	0
55	narrow0.5	0.200000	0.007500	0.950000	100.000000	0.200000	1	0	5	0	1	0.077670	0
56	narrow0.5	0.200000	0.000010	0.950000	100.000000	0.200000	1	1	12	1	1	1.115760	0
57	narrow0.5	0.200000	0.000010	0.950000	100.000000	0.200000	0	1	28	0	0	1.144990	0
58	narrow0.5	0.200000	0.000010	0.950000	100.000000	0.200000	1	1	0	0	0	0.300290	0
59	narrow0.5	0.200000	0.005627	0.950000	100.000000	0.200000	1	1	7	1	1	0.083530	0
60	narrow0.5	0.200000	0.003755	0.950000	100.000000	0.200000	1	0	6	0	1	0.140030	0
61	narrow0.5	0.200000	0.005627	0.950000	100.000000	0.200000	1	0	5	0	1	0.092270	0
62	narrow0.5	0.200000	0.001883	0.950000	100.000000	0.200000	1	0	28	0	1	0.357590	0
63	narrow0.5	0.200000	0.003755	0.950000	100.000000	0.200000	1	0	38	0	1	0.192700	0
64	narrow0.5	0.200000	0.001883	0.950000	100.000000	0.200000	1	1	37	1	1	0.867030	0
65	narrow0.5	0.200000	0.003755	0.950000	100.000000	0.200000	1	1	0	1	1	0.138010	0
66	narrow0.5	0.200000	0.003755	0.950000	100.000000	0.200000	1	1	9	1	1	0.243250	0
67	narrow0.5	0.200000	0.001883	0.950000	100.000000	0.200000	0	0	27	0	1	0.163180	0
68	narrow0.5	0.200000	0.003755	0.950000	100.000000	0.200000	1	1	12	1	1	0.137940	0
69	narrow0.5	0.200000	0.005627	0.950000	100.000000	0.200000	0	1	34	1	1	0.126210	0
70	narrow0.5	0.200000	0.005627	0.950000	100.000000	0.200000	0	1	3	1	1	0.124430	0
71	narrow0.5	0.200000	0.000010	0.950000	100.000000	0.200000	0	0	11	1	0	1.260350	0
72	narrow0.5	0.200000	0.000010	0.950000	100.000000	0.200000	1	1	24	0	0	0.197180	0
73	narrow0.5	0.200000	0.007500	0.950000	100.000000	0.200000	1	1	14	1	1	0.132570	0
74	narrow0.5	0.200000	0.007500	0.950000	100.000000	0.200000	1	1	20	1	1	0.108760	0
75	narrow0.5	0.200000	0.000010	0.950000	100.000000	0.200000	0	1	26	0	0	1.143760	0
76	narrow0.5	0.200000	0.001883	0.950000	100.000000	0.200000	1	0	34	0	1	0.410030	0
77	narrow0.5	0.200000	0.007500	0.950000	100.000000	0.200000	0	0	24	0	1	0.166380	0
78	narrow0.5	0.200000	0.005627	0.950000	100.000000	0.200000	0	0	3	0	1	0.123480	0
79	narrow0.5	0.200000	0.005627	0.950000	100.000000	0.200000	0	0	30	0	1	0.140380	0
80	narrow0.5	0.200000	0.003755	0.950000	100.000000	0.200000	0	0	37	0	1	0.108920	0
81	narrow0.5	0.200000	0.001883	0.950000	100.000000	0.200000	1	0	21	0	1	0.674470	0
82	narrow0.5	0.200000	0.003755	0.950000	100.000000	0.200000	1	1	3	1	1	0.181500	0
83	narrow0.5	0.200000	0.000010	0.950000	100.000000	0.200000	0	1	39	1	1	0.550350	0
84	narrow0.5	0.200000	0.000010	0.950000	100.000000	0.200000	0	1	39	1	1	0.753320	0
85	narrow0.5	0.200000	0.007500	0.950000	100.000000	0.200000	1	1	15	1	1	0.132130	0
86	narrow0.5	0.200000	0.007500	0.950000	100.000000	0.200000	1	1	17	1	1	0.140570	0
87	narrow0.5	0.200000	0.005627	0.950000	100.000000	0.200000	1	1	1	1	1	0.197670	0
88	narrow0.5	0.200000	0.001883	0.950000	100.000000	0.200000	1	0	21	0	1	0.182320	0
89	narrow0.5	0.200000	0.007500	0.950000	100.000000	0.200000	1	0	7	0	1	0.127150	0
90	narrow0.5	0.200000	0.007500	0.950000	100.000000	0.200000	1	0	37	0	1	0.069880	0
91	narrow0.5	0.200000	0.005627	0.950000	100.000000	0.200000	0	1	26	1	1	0.073120	0
92	narrow0.5	0.200000	0.007500	0.950000	100.000000	0.200000	0	1	27	1	1	0.052030	0
93	narrow0.5	0.200000	0.005627	0.950000	100.000000	0.200000	0	1	15	1	1	0.343350	0
94	narrow0.5	0.200000	0.007500	0.950000	100.000000	0.200000	0	0	24	0	1	0.166270	0
95	narrow0.5	0.200000	0.007500	0.950000	100.000000	0.200000	0	1	35	1	1	0.050870	0
96	narrow0.5	0.200000	0.003755	0.950000	100.000000	0.200000	1	0	37	0	1	0.336410	0
97	narrow0.5	0.200000	0.001883	0.950000	100.000000	0.200000	0	1	1	1	1	1.000530	0
98	narrow0.5	0.200000	0.001883	0.950000	100.000000	0.200000	0	0	35	1	0	0.587550	0
99	narrow0.5	0.200000	0.005627	0.950000	100.000000	0.200000	0	0	4	0	1	0.080590	0
