trial	noise	noise_contrast	edge_contrast	edge_width	mean_lum	stim_time	rotID	transID	maskID	resp	correct	resptime	dropframes
0	none	0.200000	0.002505	0.950000	100.000000	0.200000	1	0	8	1	0	0.487140	0
1	none	0.200000	0.002505	0.950000	100.000000	0.200000	1	1	18	1	1	0.199840	0
2	none	0.200000	0.005000	0.950000	100.000000	0.200000	1	1	33	1	1	0.162580	0
3	none	0.200000	0.001258	0.950000	100.000000	0.200000	1	0	24	0	1	0.222090	0
4	none	0.200000	0.001258	0.950000	100.000000	0.200000	1	0	17	0	1	0.378090	0
5	none	0.200000	0.003753	0.950000	100.000000	0.200000	0	1	17	1	1	0.202410	0
6	none	0.200000	0.003753	0.950000	100.000000	0.200000	0	0	1	0	1	0.207370	0
7	none	0.200000	0.000010	0.950000	100.000000	0.200000	1	1	2	1	1	0.321920	0
8	none	0.200000	0.005000	0.950000	100.000000	0.200000	0	1	22	1	1	0.120580	0
9	none	0.200000	0.005000	0.950000	100.000000	0.200000	0	0	7	0	1	0.100610	0
10	none	0.200000	0.005000	0.950000	100.000000	0.200000	0	1	31	1	1	0.070740	0
11	none	0.200000	0.001258	0.950000	100.000000	0.200000	1	1	26	0	0	0.258310	0
12	none	0.200000	0.000010	0.950000	100.000000	0.200000	1	1	3	0	0	0.485000	0
13	none	0.200000	0.002505	0.950000	100.000000	0.200000	0	0	30	0	1	0.363200	0
14	none	0.200000	0.003753	0.950000	100.000000	0.200000	0	1	28	1	1	0.036190	0
15	none	0.200000	0.002505	0.950000	100.000000	0.200000	0	0	11	0	1	0.295820	0
16	none	0.200000	0.002505	0.950000	100.000000	0.200000	1	1	16	1	1	0.088640	0
17	none	0.200000	0.002505	0.950000	100.000000	0.200000	0	0	10	1	0	0.227270	0
18	none	0.200000	0.000010	0.950000	100.000000	0.200000	0	1	3	0	0	0.304520	0
19	none	0.200000	0.001258	0.950000	100.000000	0.200000	0	0	0	1	0	0.250340	0
20	none	0.200000	0.003753	0.950000	100.000000	0.200000	1	0	14	0	1	0.075070	0
21	none	0.200000	0.000010	0.950000	100.000000	0.200000	0	0	11	0	1	0.453930	0
22	none	0.200000	0.001258	0.950000	100.000000	0.200000	0	1	10	1	1	0.474990	0
23	none	0.200000	0.005000	0.950000	100.000000	0.200000	1	1	12	1	1	0.119090	0
24	none	0.200000	0.005000	0.950000	100.000000	0.200000	1	1	36	1	1	0.049810	0
25	none	0.200000	0.003753	0.950000	100.000000	0.200000	0	0	30	0	1	0.331190	0
26	none	0.200000	0.005000	0.950000	100.000000	0.200000	0	1	26	1	1	0.292550	0
27	none	0.200000	0.003753	0.950000	100.000000	0.200000	0	1	36	1	1	0.163650	0
28	none	0.200000	0.003753	0.950000	100.000000	0.200000	1	1	37	1	1	0.525300	0
29	none	0.200000	0.002505	0.950000	100.000000	0.200000	1	0	34	0	1	0.444610	0
30	none	0.200000	0.000010	0.950000	100.000000	0.200000	1	0	16	1	0	0.635580	0
31	none	0.200000	0.001258	0.950000	100.000000	0.200000	0	1	23	1	1	0.149160	0
32	none	0.200000	0.001258	0.950000	100.000000	0.200000	0	1	21	1	1	0.221170	0
33	none	0.200000	0.000010	0.950000	100.000000	0.200000	0	0	1	0	1	0.495400	0
34	none	0.200000	0.001258	0.950000	100.000000	0.200000	1	0	23	0	1	0.394920	0
35	none	0.200000	0.003753	0.950000	100.000000	0.200000	0	0	33	0	1	0.180670	0
36	none	0.200000	0.001258	0.950000	100.000000	0.200000	0	0	31	0	1	0.286400	0
37	none	0.200000	0.003753	0.950000	100.000000	0.200000	0	1	27	1	1	0.279120	0
38	none	0.200000	0.001258	0.950000	100.000000	0.200000	1	1	19	0	0	0.737620	0
39	none	0.200000	0.002505	0.950000	100.000000	0.200000	1	0	30	0	1	0.380010	0
40	none	0.200000	0.005000	0.950000	100.000000	0.200000	0	0	24	0	1	0.121650	0
41	none	0.200000	0.001258	0.950000	100.000000	0.200000	0	0	36	0	1	0.188050	0
42	none	0.200000	0.003753	0.950000	100.000000	0.200000	0	0	39	0	1	0.084200	0
43	none	0.200000	0.000010	0.950000	100.000000	0.200000	1	0	22	0	1	0.252040	0
44	none	0.200000	0.002505	0.950000	100.000000	0.200000	1	0	17	1	0	0.944080	0
45	none	0.200000	0.002505	0.950000	100.000000	0.200000	0	0	34	0	1	0.030670	0
46	none	0.200000	0.005000	0.950000	100.000000	0.200000	0	0	12	0	1	0.119480	0
47	none	0.200000	0.000010	0.950000	100.000000	0.200000	1	0	5	1	0	0.383730	0
48	none	0.200000	0.001258	0.950000	100.000000	0.200000	1	1	29	1	1	0.296980	0
49	none	0.200000	0.003753	0.950000	100.000000	0.200000	1	1	36	1	1	0.193510	0
50	none	0.200000	0.000010	0.950000	100.000000	0.200000	1	1	33	0	0	0.101040	0
51	none	0.200000	0.001258	0.950000	100.000000	0.200000	0	1	11	1	1	0.895470	0
52	none	0.200000	0.003753	0.950000	100.000000	0.200000	0	0	15	0	1	0.050030	0
53	none	0.200000	0.002505	0.950000	100.000000	0.200000	1	1	33	0	0	0.768830	0
54	none	0.200000	0.005000	0.950000	100.000000	0.200000	1	1	27	1	1	0.015890	0
55	none	0.200000	0.002505	0.950000	100.000000	0.200000	1	1	7	0	0	0.176830	0
56	none	0.200000	0.001258	0.950000	100.000000	0.200000	1	0	16	1	0	0.707410	0
57	none	0.200000	0.005000	0.950000	100.000000	0.200000	1	0	34	0	1	0.105370	0
58	none	0.200000	0.003753	0.950000	100.000000	0.200000	0	0	13	0	1	0.107590	0
59	none	0.200000	0.002505	0.950000	100.000000	0.200000	1	1	20	1	1	0.218050	0
60	none	0.200000	0.000010	0.950000	100.000000	0.200000	0	1	26	1	1	0.844630	0
61	none	0.200000	0.002505	0.950000	100.000000	0.200000	1	0	39	1	0	1.218990	0
62	none	0.200000	0.002505	0.950000	100.000000	0.200000	1	0	30	0	1	0.156710	0
63	none	0.200000	0.001258	0.950000	100.000000	0.200000	0	1	29	0	0	0.453250	0
64	none	0.200000	0.000010	0.950000	100.000000	0.200000	0	0	14	0	1	0.558350	0
65	none	0.200000	0.003753	0.950000	100.000000	0.200000	1	1	3	1	1	0.239040	1
66	none	0.200000	0.000010	0.950000	100.000000	0.200000	1	1	24	1	1	0.593780	0
67	none	0.200000	0.002505	0.950000	100.000000	0.200000	1	1	39	1	1	1.281330	0
68	none	0.200000	0.002505	0.950000	100.000000	0.200000	1	0	16	0	1	0.215830	0
69	none	0.200000	0.000010	0.950000	100.000000	0.200000	1	1	37	0	0	0.460440	0
70	none	0.200000	0.002505	0.950000	100.000000	0.200000	0	0	3	0	1	0.245430	0
71	none	0.200000	0.005000	0.950000	100.000000	0.200000	0	1	20	1	1	0.107470	0
72	none	0.200000	0.000010	0.950000	100.000000	0.200000	1	0	12	1	0	0.606540	0
73	none	0.200000	0.003753	0.950000	100.000000	0.200000	1	1	38	1	1	0.213120	0
74	none	0.200000	0.001258	0.950000	100.000000	0.200000	0	1	20	1	1	0.293250	0
75	none	0.200000	0.002505	0.950000	100.000000	0.200000	0	1	16	0	0	0.932090	0
76	none	0.200000	0.005000	0.950000	100.000000	0.200000	1	1	10	1	1	0.126920	0
77	none	0.200000	0.005000	0.950000	100.000000	0.200000	0	1	22	1	1	0.076780	0
78	none	0.200000	0.005000	0.950000	100.000000	0.200000	1	1	0	1	1	0.052810	0
79	none	0.200000	0.000010	0.950000	100.000000	0.200000	1	0	35	1	0	0.630390	0
80	none	0.200000	0.001258	0.950000	100.000000	0.200000	1	1	35	0	0	1.313090	0
81	none	0.200000	0.005000	0.950000	100.000000	0.200000	0	1	11	1	1	0.048790	0
82	none	0.200000	0.001258	0.950000	100.000000	0.200000	1	1	25	1	1	0.220620	0
83	none	0.200000	0.005000	0.950000	100.000000	0.200000	1	1	13	1	1	0.080100	0
84	none	0.200000	0.003753	0.950000	100.000000	0.200000	0	1	16	1	1	0.104840	0
85	none	0.200000	0.005000	0.950000	100.000000	0.200000	1	1	1	1	1	0.162930	0
86	none	0.200000	0.000010	0.950000	100.000000	0.200000	0	1	9	1	1	0.853400	0
87	none	0.200000	0.002505	0.950000	100.000000	0.200000	0	0	30	0	1	0.090160	0
88	none	0.200000	0.001258	0.950000	100.000000	0.200000	0	1	26	0	0	0.673400	0
89	none	0.200000	0.005000	0.950000	100.000000	0.200000	1	1	21	1	1	0.023360	0
90	none	0.200000	0.003753	0.950000	100.000000	0.200000	1	0	36	0	1	0.331250	0
91	none	0.200000	0.000010	0.950000	100.000000	0.200000	1	0	35	1	0	1.103750	0
92	none	0.200000	0.000010	0.950000	100.000000	0.200000	1	0	9	1	0	0.393090	0
93	none	0.200000	0.003753	0.950000	100.000000	0.200000	0	0	24	0	1	0.173060	0
94	none	0.200000	0.001258	0.950000	100.000000	0.200000	1	1	2	1	1	0.269400	0
95	none	0.200000	0.003753	0.950000	100.000000	0.200000	0	0	12	0	1	0.179890	0
96	none	0.200000	0.003753	0.950000	100.000000	0.200000	0	1	38	1	1	0.187520	0
97	none	0.200000	0.005000	0.950000	100.000000	0.200000	0	1	12	1	1	0.127910	0
98	none	0.200000	0.000010	0.950000	100.000000	0.200000	1	1	9	0	0	0.165620	0
99	none	0.200000	0.000010	0.950000	100.000000	0.200000	1	0	0	0	1	0.633550	0
