trial	noise	noise_contrast	edge_contrast	edge_width	mean_lum	stim_time	rotID	transID	maskID	resp	correct	resptime	dropframes
0	white	0.200000	0.000010	0.150000	100.000000	0.200000	1	0	35	0	1	0.732060	0
1	white	0.200000	0.003133	0.150000	100.000000	0.200000	0	1	23	1	1	1.197290	0
2	white	0.200000	0.000010	0.150000	100.000000	0.200000	1	0	21	0	1	0.562680	1
3	white	0.200000	0.009378	0.150000	100.000000	0.200000	0	0	10	0	1	0.135750	0
4	white	0.200000	0.006255	0.150000	100.000000	0.200000	1	0	18	0	1	0.201530	0
5	white	0.200000	0.009378	0.150000	100.000000	0.200000	1	1	27	1	1	0.175310	0
6	white	0.200000	0.006255	0.150000	100.000000	0.200000	1	0	25	1	0	0.588620	0
7	white	0.200000	0.000010	0.150000	100.000000	0.200000	1	0	39	0	1	0.328650	0
8	white	0.200000	0.009378	0.150000	100.000000	0.200000	0	0	17	0	1	0.198140	0
9	white	0.200000	0.000010	0.150000	100.000000	0.200000	1	0	38	1	0	1.073540	0
10	white	0.200000	0.006255	0.150000	100.000000	0.200000	1	0	34	0	1	0.270470	0
11	white	0.200000	0.003133	0.150000	100.000000	0.200000	0	1	35	1	1	0.345750	0
12	white	0.200000	0.012500	0.150000	100.000000	0.200000	1	1	14	1	1	0.233060	0
13	white	0.200000	0.006255	0.150000	100.000000	0.200000	1	0	8	0	1	0.258250	0
14	white	0.200000	0.003133	0.150000	100.000000	0.200000	0	1	29	1	1	0.238580	0
15	white	0.200000	0.012500	0.150000	100.000000	0.200000	1	1	12	1	1	0.196360	0
16	white	0.200000	0.009378	0.150000	100.000000	0.200000	1	0	26	0	1	0.108150	0
17	white	0.200000	0.006255	0.150000	100.000000	0.200000	0	0	3	0	1	0.165680	0
18	white	0.200000	0.009378	0.150000	100.000000	0.200000	1	1	31	1	1	0.228890	0
19	white	0.200000	0.006255	0.150000	100.000000	0.200000	1	0	12	0	1	0.195990	0
20	white	0.200000	0.000010	0.150000	100.000000	0.200000	0	0	31	0	1	0.458530	0
21	white	0.200000	0.003133	0.150000	100.000000	0.200000	1	1	27	1	1	1.474190	0
22	white	0.200000	0.009378	0.150000	100.000000	0.200000	0	1	26	1	1	0.193540	0
23	white	0.200000	0.009378	0.150000	100.000000	0.200000	0	0	37	0	1	0.122060	0
24	white	0.200000	0.009378	0.150000	100.000000	0.200000	0	0	12	0	1	0.168940	0
25	white	0.200000	0.003133	0.150000	100.000000	0.200000	1	1	15	0	0	0.696330	0
26	white	0.200000	0.012500	0.150000	100.000000	0.200000	1	1	18	1	1	0.067800	0
27	white	0.200000	0.012500	0.150000	100.000000	0.200000	1	1	6	1	1	0.154250	0
28	white	0.200000	0.012500	0.150000	100.000000	0.200000	1	0	4	0	1	0.077920	0
29	white	0.200000	0.003133	0.150000	100.000000	0.200000	0	0	26	1	0	0.382510	0
30	white	0.200000	0.012500	0.150000	100.000000	0.200000	1	0	4	0	1	0.114540	0
31	white	0.200000	0.003133	0.150000	100.000000	0.200000	0	1	30	1	1	0.660000	0
32	white	0.200000	0.000010	0.150000	100.000000	0.200000	1	0	17	0	1	0.206760	0
33	white	0.200000	0.000010	0.150000	100.000000	0.200000	0	1	35	0	0	0.598240	0
34	white	0.200000	0.006255	0.150000	100.000000	0.200000	1	0	31	0	1	0.855270	0
35	white	0.200000	0.003133	0.150000	100.000000	0.200000	1	1	1	1	1	0.168920	0
36	white	0.200000	0.012500	0.150000	100.000000	0.200000	0	0	4	0	1	0.252290	0
37	white	0.200000	0.009378	0.150000	100.000000	0.200000	1	0	36	0	1	0.161390	0
38	white	0.200000	0.012500	0.150000	100.000000	0.200000	1	0	35	0	1	0.140670	0
39	white	0.200000	0.012500	0.150000	100.000000	0.200000	1	1	31	1	1	0.127030	0
40	white	0.200000	0.009378	0.150000	100.000000	0.200000	0	0	6	0	1	0.200430	0
41	white	0.200000	0.012500	0.150000	100.000000	0.200000	1	1	34	1	1	0.170840	0
42	white	0.200000	0.009378	0.150000	100.000000	0.200000	0	1	37	1	1	0.235550	0
43	white	0.200000	0.003133	0.150000	100.000000	0.200000	1	1	23	1	1	0.648400	0
44	white	0.200000	0.000010	0.150000	100.000000	0.200000	0	1	2	0	0	0.484250	0
45	white	0.200000	0.003133	0.150000	100.000000	0.200000	0	1	37	1	1	0.454430	0
46	white	0.200000	0.003133	0.150000	100.000000	0.200000	0	0	15	0	1	0.663800	0
47	white	0.200000	0.006255	0.150000	100.000000	0.200000	1	1	13	1	1	0.423190	0
48	white	0.200000	0.009378	0.150000	100.000000	0.200000	1	0	15	0	1	0.197160	0
49	white	0.200000	0.003133	0.150000	100.000000	0.200000	0	1	13	0	0	0.777740	0
50	white	0.200000	0.003133	0.150000	100.000000	0.200000	0	0	14	1	0	1.529980	0
51	white	0.200000	0.003133	0.150000	100.000000	0.200000	0	1	28	1	1	0.228740	0
52	white	0.200000	0.003133	0.150000	100.000000	0.200000	1	1	20	1	1	1.329160	0
53	white	0.200000	0.003133	0.150000	100.000000	0.200000	1	0	17	1	0	0.832590	0
54	white	0.200000	0.009378	0.150000	100.000000	0.200000	0	1	7	1	1	0.090040	0
55	white	0.200000	0.003133	0.150000	100.000000	0.200000	1	0	33	0	1	0.488350	0
56	white	0.200000	0.006255	0.150000	100.000000	0.200000	0	1	24	0	0	0.332060	0
57	white	0.200000	0.009378	0.150000	100.000000	0.200000	0	1	11	1	1	0.098130	0
58	white	0.200000	0.012500	0.150000	100.000000	0.200000	1	1	26	1	1	0.107790	0
59	white	0.200000	0.012500	0.150000	100.000000	0.200000	0	0	33	0	1	0.067790	0
60	white	0.200000	0.012500	0.150000	100.000000	0.200000	0	1	29	1	1	0.140230	0
61	white	0.200000	0.000010	0.150000	100.000000	0.200000	0	0	3	0	1	0.466100	0
62	white	0.200000	0.000010	0.150000	100.000000	0.200000	0	0	34	0	1	0.452310	0
63	white	0.200000	0.012500	0.150000	100.000000	0.200000	1	0	15	0	1	0.108950	0
64	white	0.200000	0.000010	0.150000	100.000000	0.200000	0	1	25	1	1	0.225470	0
65	white	0.200000	0.006255	0.150000	100.000000	0.200000	1	1	32	1	1	0.619660	0
66	white	0.200000	0.009378	0.150000	100.000000	0.200000	1	0	24	0	1	0.184860	0
67	white	0.200000	0.012500	0.150000	100.000000	0.200000	1	0	5	0	1	0.169990	0
68	white	0.200000	0.006255	0.150000	100.000000	0.200000	1	1	3	1	1	0.591690	0
69	white	0.200000	0.012500	0.150000	100.000000	0.200000	1	1	0	1	1	0.184930	0
70	white	0.200000	0.000010	0.150000	100.000000	0.200000	1	0	29	1	0	0.444520	0
71	white	0.200000	0.006255	0.150000	100.000000	0.200000	1	0	14	0	1	0.176370	0
72	white	0.200000	0.000010	0.150000	100.000000	0.200000	0	1	30	0	0	0.651330	0
73	white	0.200000	0.006255	0.150000	100.000000	0.200000	1	1	15	1	1	0.413800	0
74	white	0.200000	0.012500	0.150000	100.000000	0.200000	1	0	4	0	1	0.240330	0
75	white	0.200000	0.000010	0.150000	100.000000	0.200000	0	0	35	0	1	0.532950	0
76	white	0.200000	0.009378	0.150000	100.000000	0.200000	0	0	8	0	1	0.197230	0
77	white	0.200000	0.003133	0.150000	100.000000	0.200000	1	1	8	0	0	0.507770	0
78	white	0.200000	0.009378	0.150000	100.000000	0.200000	1	1	14	1	1	0.182380	0
79	white	0.200000	0.000010	0.150000	100.000000	0.200000	0	1	5	1	1	0.256750	0
80	white	0.200000	0.000010	0.150000	100.000000	0.200000	0	0	10	0	1	0.356180	0
81	white	0.200000	0.003133	0.150000	100.000000	0.200000	0	0	5	0	1	0.595720	0
82	white	0.200000	0.009378	0.150000	100.000000	0.200000	0	0	37	0	1	0.111650	0
83	white	0.200000	0.006255	0.150000	100.000000	0.200000	0	0	17	0	1	0.368990	0
84	white	0.200000	0.006255	0.150000	100.000000	0.200000	1	1	24	1	1	0.183370	0
85	white	0.200000	0.006255	0.150000	100.000000	0.200000	0	0	29	1	0	0.586280	0
86	white	0.200000	0.006255	0.150000	100.000000	0.200000	0	1	16	1	1	0.131400	0
87	white	0.200000	0.006255	0.150000	100.000000	0.200000	0	0	16	0	1	0.174800	0
88	white	0.200000	0.009378	0.150000	100.000000	0.200000	1	1	16	1	1	0.794990	0
89	white	0.200000	0.000010	0.150000	100.000000	0.200000	0	0	28	1	0	0.475100	0
90	white	0.200000	0.006255	0.150000	100.000000	0.200000	1	1	31	1	1	0.575750	0
91	white	0.200000	0.000010	0.150000	100.000000	0.200000	1	0	18	0	1	0.249800	0
92	white	0.200000	0.000010	0.150000	100.000000	0.200000	0	0	5	1	0	0.157530	0
93	white	0.200000	0.009378	0.150000	100.000000	0.200000	0	0	28	0	1	0.096610	0
94	white	0.200000	0.000010	0.150000	100.000000	0.200000	1	1	30	0	0	0.976480	0
95	white	0.200000	0.006255	0.150000	100.000000	0.200000	1	0	11	0	1	0.603110	0
96	white	0.200000	0.012500	0.150000	100.000000	0.200000	0	1	36	1	1	0.040860	0
97	white	0.200000	0.012500	0.150000	100.000000	0.200000	1	1	3	1	1	0.071440	0
98	white	0.200000	0.012500	0.150000	100.000000	0.200000	0	0	0	0	1	0.091270	0
99	white	0.200000	0.003133	0.150000	100.000000	0.200000	1	0	29	0	1	0.512030	0
