trial	noise	noise_contrast	edge_contrast	edge_width	mean_lum	stim_time	rotID	transID	maskID	resp	correct	resptime	dropframes
0	white	0.200000	0.000010	0.950000	100.000000	0.200000	0	0	1	1	0	0.461930	0
1	white	0.200000	0.011252	0.950000	100.000000	0.200000	0	1	11	1	1	0.026940	0
2	white	0.200000	0.015000	0.950000	100.000000	0.200000	0	1	16	1	1	0.319820	0
3	white	0.200000	0.000010	0.950000	100.000000	0.200000	1	0	39	0	1	0.342260	0
4	white	0.200000	0.011252	0.950000	100.000000	0.200000	0	1	34	1	1	0.010910	0
5	white	0.200000	0.007505	0.950000	100.000000	0.200000	0	0	28	0	1	0.208640	0
6	white	0.200000	0.011252	0.950000	100.000000	0.200000	0	0	6	0	1	0.080240	0
7	white	0.200000	0.000010	0.950000	100.000000	0.200000	1	0	21	1	0	0.150310	0
8	white	0.200000	0.000010	0.950000	100.000000	0.200000	0	0	24	0	1	0.120550	0
9	white	0.200000	0.000010	0.950000	100.000000	0.200000	1	1	37	0	0	0.129730	0
10	white	0.200000	0.011252	0.950000	100.000000	0.200000	1	0	5	0	1	0.094700	0
11	white	0.200000	0.011252	0.950000	100.000000	0.200000	0	1	18	1	1	0.068950	0
12	white	0.200000	0.015000	0.950000	100.000000	0.200000	1	1	18	1	1	0.036040	0
13	white	0.200000	0.015000	0.950000	100.000000	0.200000	1	0	30	0	1	0.099160	0
14	white	0.200000	0.015000	0.950000	100.000000	0.200000	0	1	1	1	1	0.012050	0
15	white	0.200000	0.011252	0.950000	100.000000	0.200000	0	1	12	1	1	0.076570	0
16	white	0.200000	0.003757	0.950000	100.000000	0.200000	1	1	32	0	0	0.330750	0
17	white	0.200000	0.003757	0.950000	100.000000	0.200000	1	0	14	0	1	0.097440	0
18	white	0.200000	0.011252	0.950000	100.000000	0.200000	0	1	5	1	1	0.045180	0
19	white	0.200000	0.007505	0.950000	100.000000	0.200000	0	1	10	1	1	0.055880	0
20	white	0.200000	0.015000	0.950000	100.000000	0.200000	1	0	36	0	1	0.045220	0
21	white	0.200000	0.003757	0.950000	100.000000	0.200000	1	0	27	0	1	0.058110	0
22	white	0.200000	0.011252	0.950000	100.000000	0.200000	1	1	14	1	1	0.014450	0
23	white	0.200000	0.011252	0.950000	100.000000	0.200000	1	1	12	1	1	0.031280	0
24	white	0.200000	0.007505	0.950000	100.000000	0.200000	0	1	10	1	1	0.056710	0
25	white	0.200000	0.000010	0.950000	100.000000	0.200000	0	0	5	1	0	0.040470	0
26	white	0.200000	0.015000	0.950000	100.000000	0.200000	0	0	25	0	1	0.016690	0
27	white	0.200000	0.007505	0.950000	100.000000	0.200000	0	0	13	0	1	0.074500	0
28	white	0.200000	0.015000	0.950000	100.000000	0.200000	0	1	0	1	1	0.030670	0
29	white	0.200000	0.011252	0.950000	100.000000	0.200000	1	0	39	0	1	0.150880	0
30	white	0.200000	0.000010	0.950000	100.000000	0.200000	0	0	29	1	0	0.137920	0
31	white	0.200000	0.000010	0.950000	100.000000	0.200000	0	0	24	1	0	0.114370	0
32	white	0.200000	0.007505	0.950000	100.000000	0.200000	1	0	15	0	1	0.019300	0
33	white	0.200000	0.000010	0.950000	100.000000	0.200000	0	0	23	1	0	0.036390	0
34	white	0.200000	0.003757	0.950000	100.000000	0.200000	0	1	30	0	0	0.260630	0
35	white	0.200000	0.000010	0.950000	100.000000	0.200000	1	1	11	1	1	0.107700	0
36	white	0.200000	0.007505	0.950000	100.000000	0.200000	1	1	11	1	1	0.093700	0
37	white	0.200000	0.003757	0.950000	100.000000	0.200000	0	0	10	0	1	0.037840	0
38	white	0.200000	0.003757	0.950000	100.000000	0.200000	0	1	13	1	1	0.071630	0
39	white	0.200000	0.007505	0.950000	100.000000	0.200000	0	1	25	1	1	0.077210	0
40	white	0.200000	0.000010	0.950000	100.000000	0.200000	1	1	19	1	1	0.170880	0
41	white	0.200000	0.003757	0.950000	100.000000	0.200000	0	0	1	1	0	0.094670	0
42	white	0.200000	0.003757	0.950000	100.000000	0.200000	1	0	5	0	1	0.110140	0
43	white	0.200000	0.003757	0.950000	100.000000	0.200000	1	1	20	1	1	0.138740	1
44	white	0.200000	0.000010	0.950000	100.000000	0.200000	0	1	12	1	1	0.118820	0
45	white	0.200000	0.007505	0.950000	100.000000	0.200000	1	0	34	0	1	0.298470	0
46	white	0.200000	0.003757	0.950000	100.000000	0.200000	1	0	35	0	1	0.063280	0
47	white	0.200000	0.003757	0.950000	100.000000	0.200000	0	1	6	0	0	0.083330	0
48	white	0.200000	0.007505	0.950000	100.000000	0.200000	0	1	25	0	0	0.063750	0
49	white	0.200000	0.011252	0.950000	100.000000	0.200000	0	0	19	0	1	0.053700	0
50	white	0.200000	0.003757	0.950000	100.000000	0.200000	0	1	4	0	0	0.062950	0
51	white	0.200000	0.000010	0.950000	100.000000	0.200000	1	1	5	0	0	0.206310	0
52	white	0.200000	0.011252	0.950000	100.000000	0.200000	1	1	9	1	1	0.024130	0
53	white	0.200000	0.007505	0.950000	100.000000	0.200000	1	1	23	1	1	0.074510	0
54	white	0.200000	0.007505	0.950000	100.000000	0.200000	1	1	37	1	1	0.023070	0
55	white	0.200000	0.015000	0.950000	100.000000	0.200000	1	0	6	0	1	0.025830	0
56	white	0.200000	0.000010	0.950000	100.000000	0.200000	1	0	8	1	0	0.268570	0
57	white	0.200000	0.007505	0.950000	100.000000	0.200000	0	0	30	0	1	0.328210	0
58	white	0.200000	0.007505	0.950000	100.000000	0.200000	1	1	17	1	1	0.048720	0
59	white	0.200000	0.003757	0.950000	100.000000	0.200000	1	0	36	0	1	0.143000	0
60	white	0.200000	0.003757	0.950000	100.000000	0.200000	1	1	33	1	1	0.227080	0
61	white	0.200000	0.007505	0.950000	100.000000	0.200000	1	1	24	1	1	0.242230	0
62	white	0.200000	0.015000	0.950000	100.000000	0.200000	1	0	35	0	1	-0.001450	0
63	white	0.200000	0.011252	0.950000	100.000000	0.200000	1	0	27	0	1	0.019440	0
64	white	0.200000	0.011252	0.950000	100.000000	0.200000	0	0	27	0	1	0.045880	0
65	white	0.200000	0.003757	0.950000	100.000000	0.200000	0	1	33	0	0	0.143760	0
66	white	0.200000	0.015000	0.950000	100.000000	0.200000	1	0	28	0	1	0.045980	0
67	white	0.200000	0.015000	0.950000	100.000000	0.200000	0	1	3	1	1	0.090720	0
68	white	0.200000	0.000010	0.950000	100.000000	0.200000	0	0	26	1	0	0.040590	0
69	white	0.200000	0.007505	0.950000	100.000000	0.200000	0	0	28	0	1	0.021670	0
70	white	0.200000	0.015000	0.950000	100.000000	0.200000	0	1	26	1	1	0.024350	0
71	white	0.200000	0.015000	0.950000	100.000000	0.200000	0	0	24	0	1	0.077350	0
72	white	0.200000	0.003757	0.950000	100.000000	0.200000	0	1	17	0	0	0.055650	0
73	white	0.200000	0.003757	0.950000	100.000000	0.200000	1	1	2	1	1	0.045570	0
74	white	0.200000	0.015000	0.950000	100.000000	0.200000	1	0	26	0	1	0.089680	0
75	white	0.200000	0.007505	0.950000	100.000000	0.200000	0	1	14	1	1	0.087930	0
76	white	0.200000	0.011252	0.950000	100.000000	0.200000	1	1	32	1	1	0.080270	0
77	white	0.200000	0.007505	0.950000	100.000000	0.200000	0	1	13	1	1	0.062690	0
78	white	0.200000	0.015000	0.950000	100.000000	0.200000	1	1	39	1	1	0.067200	0
79	white	0.200000	0.015000	0.950000	100.000000	0.200000	1	0	32	0	1	0.092890	0
80	white	0.200000	0.007505	0.950000	100.000000	0.200000	1	1	24	1	1	0.424610	0
81	white	0.200000	0.003757	0.950000	100.000000	0.200000	0	1	28	1	1	0.050730	0
82	white	0.200000	0.003757	0.950000	100.000000	0.200000	0	0	6	0	1	0.155190	0
83	white	0.200000	0.000010	0.950000	100.000000	0.200000	1	1	13	1	1	0.187500	0
84	white	0.200000	0.011252	0.950000	100.000000	0.200000	1	1	20	1	1	0.049970	0
85	white	0.200000	0.011252	0.950000	100.000000	0.200000	0	0	38	0	1	0.089410	0
86	white	0.200000	0.003757	0.950000	100.000000	0.200000	1	1	20	0	0	0.084550	0
87	white	0.200000	0.015000	0.950000	100.000000	0.200000	0	1	30	1	1	0.000150	0
88	white	0.200000	0.007505	0.950000	100.000000	0.200000	0	0	0	0	1	0.039650	0
89	white	0.200000	0.000010	0.950000	100.000000	0.200000	0	0	18	1	0	0.257530	0
90	white	0.200000	0.000010	0.950000	100.000000	0.200000	0	1	29	0	0	0.512340	0
91	white	0.200000	0.011252	0.950000	100.000000	0.200000	0	1	37	1	1	0.013140	0
92	white	0.200000	0.015000	0.950000	100.000000	0.200000	0	0	39	0	1	0.077140	0
93	white	0.200000	0.000010	0.950000	100.000000	0.200000	0	1	18	1	1	0.139550	0
94	white	0.200000	0.011252	0.950000	100.000000	0.200000	0	1	3	1	1	0.028460	0
95	white	0.200000	0.015000	0.950000	100.000000	0.200000	0	0	18	0	1	0.036620	0
96	white	0.200000	0.000010	0.950000	100.000000	0.200000	0	0	15	0	1	0.112180	0
97	white	0.200000	0.011252	0.950000	100.000000	0.200000	1	1	1	1	1	0.012600	0
98	white	0.200000	0.007505	0.950000	100.000000	0.200000	1	1	34	1	1	0.037810	0
99	white	0.200000	0.015000	0.950000	100.000000	0.200000	1	1	26	1	1	0.297590	0
