trial	noise	noise_contrast	edge_contrast	edge_width	mean_lum	stim_time	rotID	transID	maskID	resp	correct	resptime	dropframes
0	white	0.200000	0.011252	0.048000	100.000000	0.200000	0	0	19	0	1	0.004720	0
1	white	0.200000	0.015000	0.048000	100.000000	0.200000	1	0	31	0	1	0.036610	0
2	white	0.200000	0.007505	0.048000	100.000000	0.200000	1	0	20	0	1	0.045520	0
3	white	0.200000	0.000010	0.048000	100.000000	0.200000	1	1	12	0	0	0.097610	0
4	white	0.200000	0.003757	0.048000	100.000000	0.200000	1	1	10	1	1	0.283670	0
5	white	0.200000	0.000010	0.048000	100.000000	0.200000	0	1	39	1	1	0.052230	0
6	white	0.200000	0.011252	0.048000	100.000000	0.200000	1	0	7	0	1	0.023600	0
7	white	0.200000	0.011252	0.048000	100.000000	0.200000	1	0	15	0	1	0.019530	0
8	white	0.200000	0.011252	0.048000	100.000000	0.200000	0	1	34	1	1	0.030730	0
9	white	0.200000	0.003757	0.048000	100.000000	0.200000	0	1	2	0	0	0.391800	0
10	white	0.200000	0.015000	0.048000	100.000000	0.200000	1	0	28	0	1	0.024090	0
11	white	0.200000	0.015000	0.048000	100.000000	0.200000	1	1	38	1	1	0.038480	0
12	white	0.200000	0.007505	0.048000	100.000000	0.200000	1	0	38	0	1	0.076820	0
13	white	0.200000	0.007505	0.048000	100.000000	0.200000	1	1	9	0	0	0.029440	0
14	white	0.200000	0.011252	0.048000	100.000000	0.200000	1	1	0	1	1	0.010140	0
15	white	0.200000	0.000010	0.048000	100.000000	0.200000	1	0	29	1	0	0.229180	0
16	white	0.200000	0.003757	0.048000	100.000000	0.200000	1	1	4	0	0	0.016110	0
17	white	0.200000	0.011252	0.048000	100.000000	0.200000	1	1	22	1	1	0.039430	0
18	white	0.200000	0.015000	0.048000	100.000000	0.200000	1	0	1	0	1	0.022290	0
19	white	0.200000	0.011252	0.048000	100.000000	0.200000	0	0	23	0	1	0.052780	0
20	white	0.200000	0.003757	0.048000	100.000000	0.200000	0	0	18	0	1	0.496370	0
21	white	0.200000	0.007505	0.048000	100.000000	0.200000	0	1	13	1	1	0.027880	1
22	white	0.200000	0.000010	0.048000	100.000000	0.200000	1	1	2	0	0	0.074080	0
23	white	0.200000	0.015000	0.048000	100.000000	0.200000	1	0	26	0	1	0.029040	0
24	white	0.200000	0.011252	0.048000	100.000000	0.200000	1	1	13	1	1	0.041670	0
25	white	0.200000	0.011252	0.048000	100.000000	0.200000	0	0	22	0	1	0.000420	0
26	white	0.200000	0.007505	0.048000	100.000000	0.200000	0	1	27	1	1	0.046880	0
27	white	0.200000	0.015000	0.048000	100.000000	0.200000	0	1	9	1	1	0.054040	0
28	white	0.200000	0.007505	0.048000	100.000000	0.200000	1	1	3	1	1	0.048000	0
29	white	0.200000	0.011252	0.048000	100.000000	0.200000	1	0	1	0	1	0.024110	0
30	white	0.200000	0.011252	0.048000	100.000000	0.200000	0	1	11	1	1	0.035060	0
31	white	0.200000	0.003757	0.048000	100.000000	0.200000	0	1	22	1	1	0.077950	0
32	white	0.200000	0.000010	0.048000	100.000000	0.200000	1	0	31	0	1	0.440200	0
33	white	0.200000	0.007505	0.048000	100.000000	0.200000	0	1	36	1	1	0.007010	0
34	white	0.200000	0.000010	0.048000	100.000000	0.200000	1	1	0	1	1	0.158900	0
35	white	0.200000	0.000010	0.048000	100.000000	0.200000	0	0	2	1	0	0.283910	0
36	white	0.200000	0.015000	0.048000	100.000000	0.200000	0	0	33	0	1	0.025260	0
37	white	0.200000	0.015000	0.048000	100.000000	0.200000	1	0	5	0	1	0.022080	0
38	white	0.200000	0.000010	0.048000	100.000000	0.200000	0	1	21	0	0	0.088140	0
39	white	0.200000	0.007505	0.048000	100.000000	0.200000	1	0	21	0	1	0.030910	0
40	white	0.200000	0.003757	0.048000	100.000000	0.200000	1	0	36	0	1	0.036890	0
41	white	0.200000	0.000010	0.048000	100.000000	0.200000	0	1	32	1	1	0.259950	0
42	white	0.200000	0.003757	0.048000	100.000000	0.200000	1	0	6	0	1	0.345460	0
43	white	0.200000	0.000010	0.048000	100.000000	0.200000	0	0	12	1	0	0.018610	0
44	white	0.200000	0.003757	0.048000	100.000000	0.200000	0	0	36	1	0	0.071800	0
45	white	0.200000	0.007505	0.048000	100.000000	0.200000	1	1	28	1	1	0.101140	0
46	white	0.200000	0.003757	0.048000	100.000000	0.200000	1	0	10	0	1	0.110650	0
47	white	0.200000	0.003757	0.048000	100.000000	0.200000	0	0	4	0	1	0.131050	0
48	white	0.200000	0.015000	0.048000	100.000000	0.200000	0	0	12	0	1	0.149580	0
49	white	0.200000	0.015000	0.048000	100.000000	0.200000	1	1	17	1	1	0.044460	0
50	white	0.200000	0.000010	0.048000	100.000000	0.200000	1	1	5	1	1	0.031040	0
51	white	0.200000	0.007505	0.048000	100.000000	0.200000	0	0	37	1	0	0.018690	0
52	white	0.200000	0.000010	0.048000	100.000000	0.200000	1	1	20	1	1	0.285980	0
53	white	0.200000	0.015000	0.048000	100.000000	0.200000	1	1	32	1	1	0.044720	0
54	white	0.200000	0.007505	0.048000	100.000000	0.200000	1	0	14	0	1	0.055420	0
55	white	0.200000	0.000010	0.048000	100.000000	0.200000	1	1	13	0	0	0.126640	0
56	white	0.200000	0.011252	0.048000	100.000000	0.200000	1	1	16	1	1	0.001130	0
57	white	0.200000	0.007505	0.048000	100.000000	0.200000	1	0	31	0	1	0.044250	0
58	white	0.200000	0.011252	0.048000	100.000000	0.200000	1	0	7	0	1	0.011990	0
59	white	0.200000	0.000010	0.048000	100.000000	0.200000	1	0	16	1	0	0.295300	0
60	white	0.200000	0.015000	0.048000	100.000000	0.200000	0	1	36	1	1	0.034530	0
61	white	0.200000	0.011252	0.048000	100.000000	0.200000	1	0	37	0	1	0.005900	0
62	white	0.200000	0.007505	0.048000	100.000000	0.200000	0	1	19	1	1	0.034740	0
63	white	0.200000	0.011252	0.048000	100.000000	0.200000	0	1	17	1	1	0.038340	0
64	white	0.200000	0.003757	0.048000	100.000000	0.200000	1	1	20	1	1	0.156570	0
65	white	0.200000	0.000010	0.048000	100.000000	0.200000	0	0	1	1	0	0.012330	0
66	white	0.200000	0.007505	0.048000	100.000000	0.200000	1	0	12	0	1	0.314690	0
67	white	0.200000	0.015000	0.048000	100.000000	0.200000	1	1	29	1	1	0.029250	0
68	white	0.200000	0.007505	0.048000	100.000000	0.200000	1	1	12	1	1	0.020880	0
69	white	0.200000	0.015000	0.048000	100.000000	0.200000	0	1	22	1	1	0.026130	0
70	white	0.200000	0.007505	0.048000	100.000000	0.200000	0	0	37	1	0	0.073520	0
71	white	0.200000	0.003757	0.048000	100.000000	0.200000	0	1	3	1	1	0.063950	0
72	white	0.200000	0.007505	0.048000	100.000000	0.200000	1	1	28	1	1	0.072540	0
73	white	0.200000	0.003757	0.048000	100.000000	0.200000	0	1	5	1	1	0.044440	0
74	white	0.200000	0.015000	0.048000	100.000000	0.200000	0	1	38	1	1	-0.001810	0
75	white	0.200000	0.007505	0.048000	100.000000	0.200000	0	1	23	1	1	0.300550	0
76	white	0.200000	0.000010	0.048000	100.000000	0.200000	0	1	36	1	1	0.033230	0
77	white	0.200000	0.015000	0.048000	100.000000	0.200000	0	1	8	1	1	0.067320	0
78	white	0.200000	0.003757	0.048000	100.000000	0.200000	1	1	4	0	0	0.061230	0
79	white	0.200000	0.003757	0.048000	100.000000	0.200000	0	1	20	0	0	0.133980	0
80	white	0.200000	0.015000	0.048000	100.000000	0.200000	0	0	15	0	1	0.018430	0
81	white	0.200000	0.000010	0.048000	100.000000	0.200000	0	0	23	1	0	0.106470	0
82	white	0.200000	0.007505	0.048000	100.000000	0.200000	0	1	34	1	1	0.054020	0
83	white	0.200000	0.007505	0.048000	100.000000	0.200000	1	0	33	0	1	0.307600	0
84	white	0.200000	0.000010	0.048000	100.000000	0.200000	0	0	24	0	1	0.077100	0
85	white	0.200000	0.011252	0.048000	100.000000	0.200000	1	0	12	0	1	0.027980	0
86	white	0.200000	0.011252	0.048000	100.000000	0.200000	0	0	34	0	1	0.311940	0
87	white	0.200000	0.003757	0.048000	100.000000	0.200000	0	0	37	0	1	0.219030	0
88	white	0.200000	0.011252	0.048000	100.000000	0.200000	0	1	7	1	1	0.015740	0
89	white	0.200000	0.003757	0.048000	100.000000	0.200000	0	1	2	1	1	0.104050	0
90	white	0.200000	0.000010	0.048000	100.000000	0.200000	1	1	8	1	1	0.029410	0
91	white	0.200000	0.003757	0.048000	100.000000	0.200000	0	1	21	0	0	0.040950	0
92	white	0.200000	0.003757	0.048000	100.000000	0.200000	0	0	29	1	0	0.408060	0
93	white	0.200000	0.003757	0.048000	100.000000	0.200000	0	0	17	1	0	0.025140	0
94	white	0.200000	0.011252	0.048000	100.000000	0.200000	1	1	7	1	1	0.047860	0
95	white	0.200000	0.011252	0.048000	100.000000	0.200000	1	0	26	0	1	0.042220	0
96	white	0.200000	0.000010	0.048000	100.000000	0.200000	1	0	38	1	0	0.179470	0
97	white	0.200000	0.015000	0.048000	100.000000	0.200000	1	0	0	0	1	0.016070	0
98	white	0.200000	0.015000	0.048000	100.000000	0.200000	0	0	37	0	1	0.037470	0
99	white	0.200000	0.015000	0.048000	100.000000	0.200000	1	0	32	0	1	0.000270	0
