trial	noise	noise_contrast	edge_contrast	edge_width	mean_lum	stim_time	rotID	transID	maskID	resp	correct	resptime	dropframes
0	narrow9	0.200000	0.005627	0.950000	100.000000	0.200000	0	1	37	1	1	0.028760	0
1	narrow9	0.200000	0.007500	0.950000	100.000000	0.200000	0	1	24	1	1	0.009730	0
2	narrow9	0.200000	0.001883	0.950000	100.000000	0.200000	0	0	12	1	0	0.287740	0
3	narrow9	0.200000	0.000010	0.950000	100.000000	0.200000	0	1	10	0	0	0.126760	0
4	narrow9	0.200000	0.005627	0.950000	100.000000	0.200000	0	1	23	1	1	0.038430	0
5	narrow9	0.200000	0.005627	0.950000	100.000000	0.200000	0	1	1	1	1	0.277840	0
6	narrow9	0.200000	0.003755	0.950000	100.000000	0.200000	0	1	0	1	1	0.055150	0
7	narrow9	0.200000	0.000010	0.950000	100.000000	0.200000	1	0	11	0	1	0.163670	0
8	narrow9	0.200000	0.005627	0.950000	100.000000	0.200000	1	0	30	0	1	0.080780	0
9	narrow9	0.200000	0.001883	0.950000	100.000000	0.200000	1	0	36	1	0	0.271610	0
10	narrow9	0.200000	0.001883	0.950000	100.000000	0.200000	1	0	8	0	1	0.111320	0
11	narrow9	0.200000	0.000010	0.950000	100.000000	0.200000	0	0	36	0	1	0.105000	0
12	narrow9	0.200000	0.001883	0.950000	100.000000	0.200000	1	1	24	1	1	0.059980	0
13	narrow9	0.200000	0.000010	0.950000	100.000000	0.200000	1	1	23	1	1	0.059970	0
14	narrow9	0.200000	0.000010	0.950000	100.000000	0.200000	1	0	36	1	0	0.005200	0
15	narrow9	0.200000	0.001883	0.950000	100.000000	0.200000	1	1	4	1	1	0.030870	0
16	narrow9	0.200000	0.001883	0.950000	100.000000	0.200000	0	0	28	1	0	0.037910	0
17	narrow9	0.200000	0.001883	0.950000	100.000000	0.200000	1	0	31	0	1	0.329850	0
18	narrow9	0.200000	0.007500	0.950000	100.000000	0.200000	1	0	32	0	1	0.008160	0
19	narrow9	0.200000	0.001883	0.950000	100.000000	0.200000	1	0	1	0	1	0.053180	0
20	narrow9	0.200000	0.007500	0.950000	100.000000	0.200000	1	1	29	1	1	0.069390	0
21	narrow9	0.200000	0.005627	0.950000	100.000000	0.200000	0	0	35	0	1	0.093010	0
22	narrow9	0.200000	0.003755	0.950000	100.000000	0.200000	1	1	31	1	1	0.080270	0
23	narrow9	0.200000	0.007500	0.950000	100.000000	0.200000	1	1	16	1	1	0.241190	0
24	narrow9	0.200000	0.000010	0.950000	100.000000	0.200000	0	0	27	1	0	0.225750	0
25	narrow9	0.200000	0.000010	0.950000	100.000000	0.200000	1	0	7	1	0	0.278690	0
26	narrow9	0.200000	0.007500	0.950000	100.000000	0.200000	1	0	25	0	1	0.003920	0
27	narrow9	0.200000	0.000010	0.950000	100.000000	0.200000	0	0	30	0	1	0.066240	0
28	narrow9	0.200000	0.001883	0.950000	100.000000	0.200000	1	0	35	0	1	0.079380	0
29	narrow9	0.200000	0.001883	0.950000	100.000000	0.200000	0	0	39	0	1	0.102830	0
30	narrow9	0.200000	0.005627	0.950000	100.000000	0.200000	1	0	16	0	1	0.086250	0
31	narrow9	0.200000	0.007500	0.950000	100.000000	0.200000	1	1	18	1	1	0.048290	0
32	narrow9	0.200000	0.003755	0.950000	100.000000	0.200000	0	1	7	1	1	0.050280	0
33	narrow9	0.200000	0.007500	0.950000	100.000000	0.200000	1	0	18	0	1	0.068400	0
34	narrow9	0.200000	0.005627	0.950000	100.000000	0.200000	0	1	21	1	1	0.023390	0
35	narrow9	0.200000	0.001883	0.950000	100.000000	0.200000	1	1	1	0	0	0.167260	0
36	narrow9	0.200000	0.007500	0.950000	100.000000	0.200000	1	1	18	1	1	0.045070	0
37	narrow9	0.200000	0.005627	0.950000	100.000000	0.200000	0	0	28	0	1	0.066060	0
38	narrow9	0.200000	0.003755	0.950000	100.000000	0.200000	0	0	15	1	0	0.099040	0
39	narrow9	0.200000	0.001883	0.950000	100.000000	0.200000	0	0	28	1	0	0.122640	0
40	narrow9	0.200000	0.005627	0.950000	100.000000	0.200000	0	1	9	1	1	0.053740	0
41	narrow9	0.200000	0.005627	0.950000	100.000000	0.200000	1	0	2	0	1	0.069500	0
42	narrow9	0.200000	0.005627	0.950000	100.000000	0.200000	0	1	38	1	1	0.041090	0
43	narrow9	0.200000	0.000010	0.950000	100.000000	0.200000	1	0	6	1	0	0.223530	0
44	narrow9	0.200000	0.000010	0.950000	100.000000	0.200000	0	0	21	0	1	0.084260	0
45	narrow9	0.200000	0.005627	0.950000	100.000000	0.200000	0	1	18	1	1	0.022550	1
46	narrow9	0.200000	0.005627	0.950000	100.000000	0.200000	0	1	35	1	1	0.018040	0
47	narrow9	0.200000	0.000010	0.950000	100.000000	0.200000	0	1	7	0	0	0.082650	0
48	narrow9	0.200000	0.003755	0.950000	100.000000	0.200000	0	1	30	1	1	0.135400	0
49	narrow9	0.200000	0.001883	0.950000	100.000000	0.200000	1	1	27	1	1	0.216290	0
50	narrow9	0.200000	0.007500	0.950000	100.000000	0.200000	1	1	30	1	1	0.049380	0
51	narrow9	0.200000	0.001883	0.950000	100.000000	0.200000	0	1	10	1	1	0.051230	0
52	narrow9	0.200000	0.000010	0.950000	100.000000	0.200000	0	0	14	1	0	0.020550	0
53	narrow9	0.200000	0.007500	0.950000	100.000000	0.200000	1	0	32	0	1	-0.001170	0
54	narrow9	0.200000	0.003755	0.950000	100.000000	0.200000	1	1	13	1	1	0.027230	0
55	narrow9	0.200000	0.007500	0.950000	100.000000	0.200000	1	0	14	0	1	0.003840	0
56	narrow9	0.200000	0.003755	0.950000	100.000000	0.200000	0	1	2	1	1	0.055470	0
57	narrow9	0.200000	0.003755	0.950000	100.000000	0.200000	0	1	33	0	0	0.290080	0
58	narrow9	0.200000	0.000010	0.950000	100.000000	0.200000	0	0	0	0	1	0.083840	0
59	narrow9	0.200000	0.000010	0.950000	100.000000	0.200000	1	1	26	1	1	0.046700	0
60	narrow9	0.200000	0.000010	0.950000	100.000000	0.200000	1	1	8	1	1	0.063370	0
61	narrow9	0.200000	0.001883	0.950000	100.000000	0.200000	1	1	22	1	1	0.024840	0
62	narrow9	0.200000	0.000010	0.950000	100.000000	0.200000	0	0	19	1	0	0.074870	0
63	narrow9	0.200000	0.000010	0.950000	100.000000	0.200000	1	1	21	1	1	0.183210	0
64	narrow9	0.200000	0.003755	0.950000	100.000000	0.200000	0	1	8	1	1	0.048080	0
65	narrow9	0.200000	0.003755	0.950000	100.000000	0.200000	1	1	38	1	1	0.027150	0
66	narrow9	0.200000	0.005627	0.950000	100.000000	0.200000	1	0	2	0	1	0.012110	0
67	narrow9	0.200000	0.001883	0.950000	100.000000	0.200000	0	1	17	1	1	0.278860	0
68	narrow9	0.200000	0.003755	0.950000	100.000000	0.200000	0	1	29	1	1	0.293040	0
69	narrow9	0.200000	0.000010	0.950000	100.000000	0.200000	0	0	18	1	0	0.029610	0
70	narrow9	0.200000	0.007500	0.950000	100.000000	0.200000	0	0	35	0	1	0.018110	0
71	narrow9	0.200000	0.000010	0.950000	100.000000	0.200000	0	1	5	1	1	0.064420	0
72	narrow9	0.200000	0.000010	0.950000	100.000000	0.200000	1	1	33	0	0	0.056680	0
73	narrow9	0.200000	0.003755	0.950000	100.000000	0.200000	0	0	4	0	1	0.043810	0
74	narrow9	0.200000	0.003755	0.950000	100.000000	0.200000	0	0	22	0	1	0.072550	0
75	narrow9	0.200000	0.005627	0.950000	100.000000	0.200000	0	0	37	0	1	0.027590	0
76	narrow9	0.200000	0.001883	0.950000	100.000000	0.200000	0	1	33	0	0	0.033910	0
77	narrow9	0.200000	0.007500	0.950000	100.000000	0.200000	0	0	9	0	1	0.065300	0
78	narrow9	0.200000	0.003755	0.950000	100.000000	0.200000	0	1	26	1	1	0.067230	0
79	narrow9	0.200000	0.007500	0.950000	100.000000	0.200000	1	0	32	0	1	0.039390	0
80	narrow9	0.200000	0.003755	0.950000	100.000000	0.200000	0	0	25	0	1	0.052970	0
81	narrow9	0.200000	0.007500	0.950000	100.000000	0.200000	0	0	31	0	1	0.062870	0
82	narrow9	0.200000	0.007500	0.950000	100.000000	0.200000	0	1	38	1	1	-0.000090	0
83	narrow9	0.200000	0.003755	0.950000	100.000000	0.200000	1	1	15	1	1	0.029610	0
84	narrow9	0.200000	0.001883	0.950000	100.000000	0.200000	0	1	27	1	1	0.050580	0
85	narrow9	0.200000	0.003755	0.950000	100.000000	0.200000	1	0	35	0	1	0.200460	0
86	narrow9	0.200000	0.003755	0.950000	100.000000	0.200000	0	1	13	1	1	0.121950	0
87	narrow9	0.200000	0.007500	0.950000	100.000000	0.200000	1	0	17	0	1	0.036770	0
88	narrow9	0.200000	0.001883	0.950000	100.000000	0.200000	0	1	16	1	1	0.176810	0
89	narrow9	0.200000	0.005627	0.950000	100.000000	0.200000	0	1	13	1	1	-0.000310	0
90	narrow9	0.200000	0.007500	0.950000	100.000000	0.200000	1	1	23	1	1	0.331470	0
91	narrow9	0.200000	0.001883	0.950000	100.000000	0.200000	1	1	18	0	0	0.088970	0
92	narrow9	0.200000	0.005627	0.950000	100.000000	0.200000	0	1	5	1	1	0.044920	0
93	narrow9	0.200000	0.005627	0.950000	100.000000	0.200000	1	0	10	0	1	0.033160	0
94	narrow9	0.200000	0.007500	0.950000	100.000000	0.200000	1	1	7	1	1	0.038390	0
95	narrow9	0.200000	0.003755	0.950000	100.000000	0.200000	0	1	19	1	1	0.047990	0
96	narrow9	0.200000	0.005627	0.950000	100.000000	0.200000	1	0	12	0	1	0.065980	0
97	narrow9	0.200000	0.007500	0.950000	100.000000	0.200000	1	0	2	0	1	0.037970	0
98	narrow9	0.200000	0.005627	0.950000	100.000000	0.200000	0	1	23	1	1	0.018520	0
99	narrow9	0.200000	0.003755	0.950000	100.000000	0.200000	0	1	23	1	1	0.313700	0
