trial	noise	noise_contrast	edge_contrast	edge_width	mean_lum	stim_time	rotID	transID	maskID	resp	correct	resptime	dropframes
0	narrow0.5	0.200000	0.002253	0.150000	100.000000	0.200000	1	1	23	1	1	0.193050	0
1	narrow0.5	0.200000	0.003000	0.150000	100.000000	0.200000	0	0	23	0	1	0.085380	0
2	narrow0.5	0.200000	0.002253	0.150000	100.000000	0.200000	0	1	15	1	1	0.056970	0
3	narrow0.5	0.200000	0.000758	0.150000	100.000000	0.200000	1	0	9	1	0	0.319070	0
4	narrow0.5	0.200000	0.002253	0.150000	100.000000	0.200000	0	0	32	0	1	0.076840	0
5	narrow0.5	0.200000	0.000010	0.150000	100.000000	0.200000	0	1	1	1	1	0.239550	0
6	narrow0.5	0.200000	0.003000	0.150000	100.000000	0.200000	1	0	23	0	1	0.039970	0
7	narrow0.5	0.200000	0.000758	0.150000	100.000000	0.200000	0	1	30	1	1	0.094800	0
8	narrow0.5	0.200000	0.001505	0.150000	100.000000	0.200000	1	0	32	1	0	0.107730	0
9	narrow0.5	0.200000	0.000758	0.150000	100.000000	0.200000	1	1	26	1	1	0.095940	0
10	narrow0.5	0.200000	0.000010	0.150000	100.000000	0.200000	0	0	31	1	0	0.072250	0
11	narrow0.5	0.200000	0.000758	0.150000	100.000000	0.200000	1	1	0	0	0	0.114710	0
12	narrow0.5	0.200000	0.003000	0.150000	100.000000	0.200000	0	1	38	1	1	0.020080	0
13	narrow0.5	0.200000	0.000758	0.150000	100.000000	0.200000	1	0	17	0	1	0.248850	0
14	narrow0.5	0.200000	0.001505	0.150000	100.000000	0.200000	0	0	0	0	1	0.169700	0
15	narrow0.5	0.200000	0.002253	0.150000	100.000000	0.200000	1	0	14	0	1	0.105230	0
16	narrow0.5	0.200000	0.003000	0.150000	100.000000	0.200000	0	0	4	0	1	0.047550	0
17	narrow0.5	0.200000	0.002253	0.150000	100.000000	0.200000	0	0	28	0	1	0.083180	0
18	narrow0.5	0.200000	0.001505	0.150000	100.000000	0.200000	0	1	5	1	1	0.180310	0
19	narrow0.5	0.200000	0.002253	0.150000	100.000000	0.200000	1	0	4	0	1	0.005970	0
20	narrow0.5	0.200000	0.001505	0.150000	100.000000	0.200000	1	1	11	1	1	0.083830	0
21	narrow0.5	0.200000	0.000758	0.150000	100.000000	0.200000	0	1	3	1	1	0.151890	0
22	narrow0.5	0.200000	0.000758	0.150000	100.000000	0.200000	0	0	24	1	0	0.093190	0
23	narrow0.5	0.200000	0.002253	0.150000	100.000000	0.200000	1	0	10	0	1	0.099610	0
24	narrow0.5	0.200000	0.000758	0.150000	100.000000	0.200000	1	0	25	1	0	0.070250	0
25	narrow0.5	0.200000	0.003000	0.150000	100.000000	0.200000	1	1	33	1	1	0.032270	0
26	narrow0.5	0.200000	0.003000	0.150000	100.000000	0.200000	1	1	13	1	1	0.069700	0
27	narrow0.5	0.200000	0.002253	0.150000	100.000000	0.200000	0	1	34	1	1	0.039880	0
28	narrow0.5	0.200000	0.000758	0.150000	100.000000	0.200000	0	1	27	1	1	0.152580	0
29	narrow0.5	0.200000	0.002253	0.150000	100.000000	0.200000	1	0	32	0	1	0.079380	0
30	narrow0.5	0.200000	0.000010	0.150000	100.000000	0.200000	0	1	28	1	1	0.552160	0
31	narrow0.5	0.200000	0.003000	0.150000	100.000000	0.200000	0	1	31	1	1	0.200590	0
32	narrow0.5	0.200000	0.002253	0.150000	100.000000	0.200000	0	1	11	1	1	0.006440	0
33	narrow0.5	0.200000	0.001505	0.150000	100.000000	0.200000	0	1	19	1	1	0.041500	0
34	narrow0.5	0.200000	0.000010	0.150000	100.000000	0.200000	1	1	30	1	1	0.124490	0
35	narrow0.5	0.200000	0.000010	0.150000	100.000000	0.200000	1	1	38	1	1	0.008810	0
36	narrow0.5	0.200000	0.003000	0.150000	100.000000	0.200000	0	1	20	1	1	0.022260	0
37	narrow0.5	0.200000	0.002253	0.150000	100.000000	0.200000	1	1	3	1	1	0.063280	0
38	narrow0.5	0.200000	0.000010	0.150000	100.000000	0.200000	0	1	6	1	1	0.096030	0
39	narrow0.5	0.200000	0.003000	0.150000	100.000000	0.200000	1	0	14	0	1	0.147800	0
40	narrow0.5	0.200000	0.002253	0.150000	100.000000	0.200000	1	0	30	0	1	0.070870	0
41	narrow0.5	0.200000	0.000758	0.150000	100.000000	0.200000	0	0	39	0	1	0.034280	0
42	narrow0.5	0.200000	0.001505	0.150000	100.000000	0.200000	0	1	10	1	1	0.159000	0
43	narrow0.5	0.200000	0.000010	0.150000	100.000000	0.200000	0	1	39	1	1	-0.001470	0
44	narrow0.5	0.200000	0.000758	0.150000	100.000000	0.200000	0	0	20	0	1	0.029810	0
45	narrow0.5	0.200000	0.001505	0.150000	100.000000	0.200000	0	1	7	1	1	0.050380	0
46	narrow0.5	0.200000	0.000758	0.150000	100.000000	0.200000	1	0	23	1	0	0.024880	0
47	narrow0.5	0.200000	0.000010	0.150000	100.000000	0.200000	0	1	10	1	1	0.175550	0
48	narrow0.5	0.200000	0.001505	0.150000	100.000000	0.200000	0	1	16	1	1	0.150250	0
49	narrow0.5	0.200000	0.000010	0.150000	100.000000	0.200000	1	0	32	0	1	0.144680	0
50	narrow0.5	0.200000	0.002253	0.150000	100.000000	0.200000	0	0	27	0	1	0.084170	0
51	narrow0.5	0.200000	0.000010	0.150000	100.000000	0.200000	0	1	1	0	0	0.102160	0
52	narrow0.5	0.200000	0.002253	0.150000	100.000000	0.200000	1	1	17	1	1	0.043750	0
53	narrow0.5	0.200000	0.003000	0.150000	100.000000	0.200000	0	1	18	1	1	0.009880	0
54	narrow0.5	0.200000	0.000010	0.150000	100.000000	0.200000	0	1	12	1	1	0.027830	0
55	narrow0.5	0.200000	0.000758	0.150000	100.000000	0.200000	0	1	39	1	1	0.060610	0
56	narrow0.5	0.200000	0.000010	0.150000	100.000000	0.200000	1	1	28	0	0	0.467780	0
57	narrow0.5	0.200000	0.000010	0.150000	100.000000	0.200000	1	0	7	0	1	0.167510	0
58	narrow0.5	0.200000	0.001505	0.150000	100.000000	0.200000	1	1	17	1	1	0.118810	0
59	narrow0.5	0.200000	0.001505	0.150000	100.000000	0.200000	1	0	8	0	1	0.305770	0
60	narrow0.5	0.200000	0.000758	0.150000	100.000000	0.200000	0	1	26	1	1	0.173320	0
61	narrow0.5	0.200000	0.001505	0.150000	100.000000	0.200000	0	0	35	0	1	0.151360	0
62	narrow0.5	0.200000	0.001505	0.150000	100.000000	0.200000	1	0	37	0	1	0.095400	0
63	narrow0.5	0.200000	0.000758	0.150000	100.000000	0.200000	1	1	31	0	0	0.259320	0
64	narrow0.5	0.200000	0.001505	0.150000	100.000000	0.200000	1	0	12	0	1	0.322770	0
65	narrow0.5	0.200000	0.001505	0.150000	100.000000	0.200000	0	1	21	0	0	0.013840	0
66	narrow0.5	0.200000	0.003000	0.150000	100.000000	0.200000	1	0	5	0	1	0.081500	0
67	narrow0.5	0.200000	0.002253	0.150000	100.000000	0.200000	0	0	39	0	1	0.044920	0
68	narrow0.5	0.200000	0.003000	0.150000	100.000000	0.200000	1	1	23	1	1	0.016530	0
69	narrow0.5	0.200000	0.000758	0.150000	100.000000	0.200000	0	1	7	1	1	0.096840	0
70	narrow0.5	0.200000	0.000758	0.150000	100.000000	0.200000	0	0	29	0	1	0.138370	0
71	narrow0.5	0.200000	0.001505	0.150000	100.000000	0.200000	1	1	22	1	1	0.119560	0
72	narrow0.5	0.200000	0.001505	0.150000	100.000000	0.200000	0	1	8	1	1	0.005510	0
73	narrow0.5	0.200000	0.003000	0.150000	100.000000	0.200000	0	1	16	1	1	0.018120	0
74	narrow0.5	0.200000	0.000010	0.150000	100.000000	0.200000	1	1	10	1	1	0.108060	0
75	narrow0.5	0.200000	0.001505	0.150000	100.000000	0.200000	1	1	2	1	1	0.020700	0
76	narrow0.5	0.200000	0.000010	0.150000	100.000000	0.200000	1	1	28	1	1	0.212400	0
77	narrow0.5	0.200000	0.000010	0.150000	100.000000	0.200000	1	1	17	0	0	0.064720	0
78	narrow0.5	0.200000	0.003000	0.150000	100.000000	0.200000	1	0	21	0	1	0.015850	0
79	narrow0.5	0.200000	0.001505	0.150000	100.000000	0.200000	0	1	16	1	1	0.102060	0
80	narrow0.5	0.200000	0.002253	0.150000	100.000000	0.200000	0	1	19	1	1	0.061980	0
81	narrow0.5	0.200000	0.000010	0.150000	100.000000	0.200000	1	0	30	0	1	0.058640	0
82	narrow0.5	0.200000	0.001505	0.150000	100.000000	0.200000	1	1	34	1	1	0.082650	0
83	narrow0.5	0.200000	0.003000	0.150000	100.000000	0.200000	0	1	37	1	1	0.093920	0
84	narrow0.5	0.200000	0.000758	0.150000	100.000000	0.200000	1	1	2	1	1	0.076080	0
85	narrow0.5	0.200000	0.003000	0.150000	100.000000	0.200000	1	1	29	1	1	0.047030	0
86	narrow0.5	0.200000	0.000010	0.150000	100.000000	0.200000	1	1	34	1	1	0.156910	0
87	narrow0.5	0.200000	0.002253	0.150000	100.000000	0.200000	0	1	39	1	1	0.083950	0
88	narrow0.5	0.200000	0.000758	0.150000	100.000000	0.200000	0	0	35	0	1	0.485020	0
89	narrow0.5	0.200000	0.001505	0.150000	100.000000	0.200000	1	0	33	0	1	0.092400	0
90	narrow0.5	0.200000	0.000010	0.150000	100.000000	0.200000	1	1	4	0	0	0.107390	0
91	narrow0.5	0.200000	0.002253	0.150000	100.000000	0.200000	0	0	20	0	1	0.053920	0
92	narrow0.5	0.200000	0.003000	0.150000	100.000000	0.200000	0	1	29	1	1	0.394390	0
93	narrow0.5	0.200000	0.000010	0.150000	100.000000	0.200000	1	0	14	0	1	0.175360	0
94	narrow0.5	0.200000	0.003000	0.150000	100.000000	0.200000	0	1	34	1	1	0.176580	0
95	narrow0.5	0.200000	0.000758	0.150000	100.000000	0.200000	0	0	39	0	1	0.071670	0
96	narrow0.5	0.200000	0.003000	0.150000	100.000000	0.200000	1	1	29	1	1	0.293160	0
97	narrow0.5	0.200000	0.002253	0.150000	100.000000	0.200000	0	1	36	1	1	0.056430	0
98	narrow0.5	0.200000	0.003000	0.150000	100.000000	0.200000	0	1	8	1	1	0.034680	0
99	narrow0.5	0.200000	0.002253	0.150000	100.000000	0.200000	0	0	21	0	1	0.076520	0
