trial	noise	noise_contrast	edge_contrast	edge_width	mean_lum	stim_time	rotID	transID	maskID	resp	correct	resptime	dropframes
0	pink2	0.200000	0.002005	0.048000	100.000000	0.200000	1	1	1	0	0	1.299270	0
1	pink2	0.200000	0.004000	0.048000	100.000000	0.200000	0	1	28	1	1	0.172710	0
2	pink2	0.200000	0.003003	0.048000	100.000000	0.200000	1	1	3	1	1	0.113070	0
3	pink2	0.200000	0.003003	0.048000	100.000000	0.200000	0	1	13	1	1	0.120020	0
4	pink2	0.200000	0.004000	0.048000	100.000000	0.200000	0	0	2	0	1	0.149500	0
5	pink2	0.200000	0.003003	0.048000	100.000000	0.200000	0	0	29	0	1	0.112750	0
6	pink2	0.200000	0.001008	0.048000	100.000000	0.200000	1	1	28	1	1	0.130820	0
7	pink2	0.200000	0.004000	0.048000	100.000000	0.200000	0	1	15	1	1	0.112250	0
8	pink2	0.200000	0.004000	0.048000	100.000000	0.200000	0	0	35	0	1	0.108260	0
9	pink2	0.200000	0.004000	0.048000	100.000000	0.200000	1	0	33	0	1	0.113570	0
10	pink2	0.200000	0.002005	0.048000	100.000000	0.200000	0	1	14	1	1	0.133850	0
11	pink2	0.200000	0.001008	0.048000	100.000000	0.200000	1	0	22	0	1	0.395350	0
12	pink2	0.200000	0.004000	0.048000	100.000000	0.200000	1	0	1	0	1	0.127520	0
13	pink2	0.200000	0.000010	0.048000	100.000000	0.200000	1	0	19	0	1	0.311990	0
14	pink2	0.200000	0.000010	0.048000	100.000000	0.200000	1	0	23	0	1	0.522480	0
15	pink2	0.200000	0.003003	0.048000	100.000000	0.200000	1	1	9	1	1	0.106690	0
16	pink2	0.200000	0.003003	0.048000	100.000000	0.200000	0	1	6	1	1	0.087900	0
17	pink2	0.200000	0.001008	0.048000	100.000000	0.200000	1	1	22	0	0	0.145480	0
18	pink2	0.200000	0.004000	0.048000	100.000000	0.200000	0	0	24	0	1	0.120280	0
19	pink2	0.200000	0.002005	0.048000	100.000000	0.200000	0	1	12	1	1	0.157760	0
20	pink2	0.200000	0.001008	0.048000	100.000000	0.200000	1	1	21	0	0	0.101700	0
21	pink2	0.200000	0.003003	0.048000	100.000000	0.200000	0	1	27	1	1	0.209750	0
22	pink2	0.200000	0.004000	0.048000	100.000000	0.200000	1	1	26	1	1	0.094640	0
23	pink2	0.200000	0.003003	0.048000	100.000000	0.200000	0	0	10	0	1	0.149140	0
24	pink2	0.200000	0.004000	0.048000	100.000000	0.200000	0	0	10	0	1	0.379890	0
25	pink2	0.200000	0.002005	0.048000	100.000000	0.200000	1	0	9	0	1	0.588200	0
26	pink2	0.200000	0.000010	0.048000	100.000000	0.200000	0	0	28	0	1	0.149980	0
27	pink2	0.200000	0.004000	0.048000	100.000000	0.200000	0	1	19	1	1	0.129980	0
28	pink2	0.200000	0.001008	0.048000	100.000000	0.200000	1	1	31	0	0	0.093330	0
29	pink2	0.200000	0.002005	0.048000	100.000000	0.200000	0	1	17	1	1	0.122320	0
30	pink2	0.200000	0.001008	0.048000	100.000000	0.200000	1	1	7	0	0	0.545790	0
31	pink2	0.200000	0.000010	0.048000	100.000000	0.200000	1	0	4	1	0	0.423940	0
32	pink2	0.200000	0.001008	0.048000	100.000000	0.200000	1	1	13	1	1	0.493490	0
33	pink2	0.200000	0.003003	0.048000	100.000000	0.200000	0	0	14	0	1	0.063220	0
34	pink2	0.200000	0.001008	0.048000	100.000000	0.200000	0	0	31	0	1	0.115040	0
35	pink2	0.200000	0.002005	0.048000	100.000000	0.200000	1	1	2	1	1	0.099150	0
36	pink2	0.200000	0.004000	0.048000	100.000000	0.200000	0	0	32	0	1	0.057090	0
37	pink2	0.200000	0.001008	0.048000	100.000000	0.200000	1	1	26	1	1	0.124920	0
38	pink2	0.200000	0.001008	0.048000	100.000000	0.200000	1	0	0	0	1	0.333070	0
39	pink2	0.200000	0.002005	0.048000	100.000000	0.200000	0	0	4	0	1	0.308630	0
40	pink2	0.200000	0.000010	0.048000	100.000000	0.200000	1	0	39	1	0	0.594960	0
41	pink2	0.200000	0.000010	0.048000	100.000000	0.200000	1	1	18	1	1	0.367920	0
42	pink2	0.200000	0.004000	0.048000	100.000000	0.200000	1	0	0	0	1	0.140600	0
43	pink2	0.200000	0.000010	0.048000	100.000000	0.200000	0	0	4	1	0	0.339740	0
44	pink2	0.200000	0.002005	0.048000	100.000000	0.200000	0	0	4	0	1	0.237080	0
45	pink2	0.200000	0.000010	0.048000	100.000000	0.200000	1	0	13	0	1	0.919660	0
46	pink2	0.200000	0.001008	0.048000	100.000000	0.200000	1	1	14	1	1	0.495690	0
47	pink2	0.200000	0.000010	0.048000	100.000000	0.200000	1	1	37	0	0	0.806600	0
48	pink2	0.200000	0.000010	0.048000	100.000000	0.200000	1	0	29	1	0	0.389810	0
49	pink2	0.200000	0.000010	0.048000	100.000000	0.200000	0	0	14	0	1	0.485090	0
50	pink2	0.200000	0.001008	0.048000	100.000000	0.200000	0	1	32	1	1	0.638890	0
51	pink2	0.200000	0.002005	0.048000	100.000000	0.200000	0	0	9	1	0	0.787020	0
52	pink2	0.200000	0.003003	0.048000	100.000000	0.200000	0	1	21	1	1	0.187730	0
53	pink2	0.200000	0.002005	0.048000	100.000000	0.200000	1	1	23	1	1	0.161660	0
54	pink2	0.200000	0.000010	0.048000	100.000000	0.200000	0	0	12	0	1	0.479120	0
55	pink2	0.200000	0.004000	0.048000	100.000000	0.200000	0	1	20	1	1	0.111540	0
56	pink2	0.200000	0.000010	0.048000	100.000000	0.200000	1	0	26	0	1	0.181880	0
57	pink2	0.200000	0.001008	0.048000	100.000000	0.200000	1	0	26	1	0	0.128280	0
58	pink2	0.200000	0.002005	0.048000	100.000000	0.200000	0	0	8	0	1	0.566580	0
59	pink2	0.200000	0.002005	0.048000	100.000000	0.200000	0	0	31	0	1	0.677720	0
60	pink2	0.200000	0.003003	0.048000	100.000000	0.200000	0	1	31	1	1	0.099870	0
61	pink2	0.200000	0.000010	0.048000	100.000000	0.200000	1	1	20	0	0	0.326450	0
62	pink2	0.200000	0.000010	0.048000	100.000000	0.200000	1	0	11	0	1	0.614070	0
63	pink2	0.200000	0.004000	0.048000	100.000000	0.200000	1	0	0	0	1	0.151640	0
64	pink2	0.200000	0.003003	0.048000	100.000000	0.200000	0	0	0	0	1	0.132520	0
65	pink2	0.200000	0.000010	0.048000	100.000000	0.200000	1	0	24	1	0	0.202820	1
66	pink2	0.200000	0.002005	0.048000	100.000000	0.200000	1	0	38	1	0	0.461170	0
67	pink2	0.200000	0.003003	0.048000	100.000000	0.200000	1	0	39	0	1	0.142780	0
68	pink2	0.200000	0.001008	0.048000	100.000000	0.200000	0	1	25	0	0	0.304000	0
69	pink2	0.200000	0.003003	0.048000	100.000000	0.200000	1	1	5	1	1	0.175320	0
70	pink2	0.200000	0.000010	0.048000	100.000000	0.200000	1	0	1	0	1	0.964030	0
71	pink2	0.200000	0.002005	0.048000	100.000000	0.200000	1	0	13	0	1	0.264870	0
72	pink2	0.200000	0.002005	0.048000	100.000000	0.200000	1	1	27	1	1	0.185550	0
73	pink2	0.200000	0.003003	0.048000	100.000000	0.200000	0	1	3	1	1	0.099480	0
74	pink2	0.200000	0.003003	0.048000	100.000000	0.200000	1	0	34	0	1	0.198560	0
75	pink2	0.200000	0.000010	0.048000	100.000000	0.200000	1	0	36	1	0	0.151440	0
76	pink2	0.200000	0.001008	0.048000	100.000000	0.200000	0	1	24	0	0	0.084050	0
77	pink2	0.200000	0.002005	0.048000	100.000000	0.200000	0	0	11	0	1	0.198630	0
78	pink2	0.200000	0.004000	0.048000	100.000000	0.200000	1	1	34	1	1	0.090050	0
79	pink2	0.200000	0.001008	0.048000	100.000000	0.200000	0	1	1	1	1	0.105930	0
80	pink2	0.200000	0.004000	0.048000	100.000000	0.200000	0	0	33	0	1	0.031640	0
81	pink2	0.200000	0.004000	0.048000	100.000000	0.200000	1	0	16	0	1	0.266890	0
82	pink2	0.200000	0.002005	0.048000	100.000000	0.200000	0	1	11	1	1	0.154400	0
83	pink2	0.200000	0.003003	0.048000	100.000000	0.200000	0	0	26	0	1	0.251530	0
84	pink2	0.200000	0.003003	0.048000	100.000000	0.200000	0	1	5	1	1	0.080710	0
85	pink2	0.200000	0.000010	0.048000	100.000000	0.200000	1	0	5	0	1	0.327830	0
86	pink2	0.200000	0.003003	0.048000	100.000000	0.200000	0	1	35	1	1	0.121390	0
87	pink2	0.200000	0.001008	0.048000	100.000000	0.200000	1	0	34	1	0	0.845910	0
88	pink2	0.200000	0.004000	0.048000	100.000000	0.200000	1	0	17	0	1	0.148980	0
89	pink2	0.200000	0.004000	0.048000	100.000000	0.200000	1	0	13	0	1	0.041970	0
90	pink2	0.200000	0.002005	0.048000	100.000000	0.200000	0	1	34	1	1	0.234870	0
91	pink2	0.200000	0.003003	0.048000	100.000000	0.200000	0	0	11	0	1	0.141890	0
92	pink2	0.200000	0.004000	0.048000	100.000000	0.200000	0	1	12	1	1	0.099610	0
93	pink2	0.200000	0.002005	0.048000	100.000000	0.200000	0	0	14	0	1	0.448720	0
94	pink2	0.200000	0.000010	0.048000	100.000000	0.200000	0	0	13	1	0	0.216860	0
95	pink2	0.200000	0.001008	0.048000	100.000000	0.200000	0	0	1	0	1	0.124410	0
96	pink2	0.200000	0.003003	0.048000	100.000000	0.200000	0	1	8	1	1	0.146160	0
97	pink2	0.200000	0.002005	0.048000	100.000000	0.200000	1	0	30	1	0	0.499330	0
98	pink2	0.200000	0.001008	0.048000	100.000000	0.200000	0	0	23	1	0	0.390930	0
99	pink2	0.200000	0.001008	0.048000	100.000000	0.200000	1	1	30	0	0	0.206470	0
