trial	noise	noise_contrast	edge_contrast	edge_width	mean_lum	stim_time	rotID	transID	maskID	resp	correct	resptime	dropframes
0	white	0.200000	0.012500	0.150000	100.000000	0.200000	0	1	29	1	1	0.156380	0
1	white	0.200000	0.009378	0.150000	100.000000	0.200000	1	0	8	0	1	0.035350	0
2	white	0.200000	0.000010	0.150000	100.000000	0.200000	1	0	10	0	1	0.734280	0
3	white	0.200000	0.006255	0.150000	100.000000	0.200000	1	1	2	1	1	0.236370	0
4	white	0.200000	0.003133	0.150000	100.000000	0.200000	0	0	2	1	0	0.438800	0
5	white	0.200000	0.012500	0.150000	100.000000	0.200000	0	1	2	1	1	0.154260	0
6	white	0.200000	0.009378	0.150000	100.000000	0.200000	1	0	36	0	1	0.029700	0
7	white	0.200000	0.000010	0.150000	100.000000	0.200000	0	0	1	0	1	0.349350	0
8	white	0.200000	0.000010	0.150000	100.000000	0.200000	1	1	11	0	0	0.270780	0
9	white	0.200000	0.000010	0.150000	100.000000	0.200000	0	1	3	0	0	0.661720	0
10	white	0.200000	0.012500	0.150000	100.000000	0.200000	0	0	5	0	1	0.147720	0
11	white	0.200000	0.012500	0.150000	100.000000	0.200000	0	1	3	1	1	1.231460	0
12	white	0.200000	0.000010	0.150000	100.000000	0.200000	0	1	39	0	0	0.465450	0
13	white	0.200000	0.009378	0.150000	100.000000	0.200000	0	1	39	1	1	0.239680	0
14	white	0.200000	0.000010	0.150000	100.000000	0.200000	0	0	20	0	1	0.192560	0
15	white	0.200000	0.012500	0.150000	100.000000	0.200000	1	0	10	0	1	0.120310	0
16	white	0.200000	0.009378	0.150000	100.000000	0.200000	0	1	28	1	1	1.059230	0
17	white	0.200000	0.006255	0.150000	100.000000	0.200000	0	1	30	1	1	0.254830	0
18	white	0.200000	0.003133	0.150000	100.000000	0.200000	1	0	0	0	1	0.764040	0
19	white	0.200000	0.003133	0.150000	100.000000	0.200000	0	0	13	1	0	0.444090	0
20	white	0.200000	0.009378	0.150000	100.000000	0.200000	0	1	21	1	1	0.279880	0
21	white	0.200000	0.009378	0.150000	100.000000	0.200000	1	0	23	0	1	0.089180	1
22	white	0.200000	0.000010	0.150000	100.000000	0.200000	1	1	25	0	0	0.302120	0
23	white	0.200000	0.006255	0.150000	100.000000	0.200000	0	0	27	1	0	0.024860	0
24	white	0.200000	0.006255	0.150000	100.000000	0.200000	1	0	21	0	1	0.047130	0
25	white	0.200000	0.009378	0.150000	100.000000	0.200000	1	1	12	1	1	0.230200	0
26	white	0.200000	0.003133	0.150000	100.000000	0.200000	1	0	31	0	1	0.078070	0
27	white	0.200000	0.000010	0.150000	100.000000	0.200000	1	1	16	0	0	0.387860	0
28	white	0.200000	0.012500	0.150000	100.000000	0.200000	1	0	14	0	1	0.260510	0
29	white	0.200000	0.006255	0.150000	100.000000	0.200000	0	0	37	0	1	0.405200	0
30	white	0.200000	0.009378	0.150000	100.000000	0.200000	0	0	13	0	1	0.218880	0
31	white	0.200000	0.006255	0.150000	100.000000	0.200000	0	1	9	1	1	0.271740	0
32	white	0.200000	0.012500	0.150000	100.000000	0.200000	1	0	19	0	1	0.139560	0
33	white	0.200000	0.000010	0.150000	100.000000	0.200000	1	1	6	1	1	0.266990	0
34	white	0.200000	0.003133	0.150000	100.000000	0.200000	0	1	5	1	1	0.380550	0
35	white	0.200000	0.006255	0.150000	100.000000	0.200000	0	0	22	0	1	0.167680	0
36	white	0.200000	0.000010	0.150000	100.000000	0.200000	1	0	7	1	0	0.240000	0
37	white	0.200000	0.006255	0.150000	100.000000	0.200000	0	1	33	0	0	0.117170	0
38	white	0.200000	0.003133	0.150000	100.000000	0.200000	1	0	31	0	1	0.327170	0
39	white	0.200000	0.003133	0.150000	100.000000	0.200000	0	1	6	1	1	0.172670	0
40	white	0.200000	0.006255	0.150000	100.000000	0.200000	1	1	26	1	1	0.203710	0
41	white	0.200000	0.003133	0.150000	100.000000	0.200000	1	0	38	0	1	0.221330	0
42	white	0.200000	0.000010	0.150000	100.000000	0.200000	0	0	5	0	1	0.170390	0
43	white	0.200000	0.000010	0.150000	100.000000	0.200000	0	1	15	1	1	0.214730	0
44	white	0.200000	0.012500	0.150000	100.000000	0.200000	1	1	9	1	1	0.145390	0
45	white	0.200000	0.003133	0.150000	100.000000	0.200000	0	1	38	0	0	0.022690	0
46	white	0.200000	0.003133	0.150000	100.000000	0.200000	1	1	35	0	0	0.261230	0
47	white	0.200000	0.003133	0.150000	100.000000	0.200000	1	0	4	1	0	0.002790	0
48	white	0.200000	0.009378	0.150000	100.000000	0.200000	1	0	38	0	1	0.182280	0
49	white	0.200000	0.006255	0.150000	100.000000	0.200000	0	1	0	1	1	0.290130	0
50	white	0.200000	0.012500	0.150000	100.000000	0.200000	0	1	21	1	1	0.116740	0
51	white	0.200000	0.009378	0.150000	100.000000	0.200000	0	1	19	1	1	0.057860	0
52	white	0.200000	0.003133	0.150000	100.000000	0.200000	0	0	13	0	1	0.144860	0
53	white	0.200000	0.006255	0.150000	100.000000	0.200000	0	0	3	0	1	0.051930	0
54	white	0.200000	0.003133	0.150000	100.000000	0.200000	1	1	0	0	0	0.252850	0
55	white	0.200000	0.009378	0.150000	100.000000	0.200000	0	0	18	0	1	0.062800	0
56	white	0.200000	0.009378	0.150000	100.000000	0.200000	1	1	10	1	1	0.116230	0
57	white	0.200000	0.012500	0.150000	100.000000	0.200000	0	1	16	1	1	0.127420	0
58	white	0.200000	0.006255	0.150000	100.000000	0.200000	0	0	30	0	1	0.029950	0
59	white	0.200000	0.009378	0.150000	100.000000	0.200000	0	0	18	0	1	0.119480	0
60	white	0.200000	0.009378	0.150000	100.000000	0.200000	0	0	13	0	1	0.357800	0
61	white	0.200000	0.006255	0.150000	100.000000	0.200000	1	0	14	0	1	0.295940	0
62	white	0.200000	0.009378	0.150000	100.000000	0.200000	1	1	37	1	1	0.073330	0
63	white	0.200000	0.012500	0.150000	100.000000	0.200000	1	1	30	1	1	0.062740	0
64	white	0.200000	0.006255	0.150000	100.000000	0.200000	0	1	8	1	1	0.243870	0
65	white	0.200000	0.003133	0.150000	100.000000	0.200000	1	0	25	0	1	0.161880	0
66	white	0.200000	0.009378	0.150000	100.000000	0.200000	1	0	18	0	1	0.011190	0
67	white	0.200000	0.006255	0.150000	100.000000	0.200000	0	1	20	0	0	0.138050	0
68	white	0.200000	0.012500	0.150000	100.000000	0.200000	1	0	32	0	1	0.018070	0
69	white	0.200000	0.006255	0.150000	100.000000	0.200000	1	0	25	0	1	0.055900	0
70	white	0.200000	0.003133	0.150000	100.000000	0.200000	0	0	3	0	1	0.136130	0
71	white	0.200000	0.006255	0.150000	100.000000	0.200000	0	1	2	1	1	0.016130	0
72	white	0.200000	0.012500	0.150000	100.000000	0.200000	0	1	1	1	1	0.052080	0
73	white	0.200000	0.006255	0.150000	100.000000	0.200000	0	0	20	0	1	0.069640	0
74	white	0.200000	0.012500	0.150000	100.000000	0.200000	0	0	25	0	1	0.100480	0
75	white	0.200000	0.003133	0.150000	100.000000	0.200000	1	1	7	1	1	0.193120	0
76	white	0.200000	0.009378	0.150000	100.000000	0.200000	1	1	28	1	1	0.007770	0
77	white	0.200000	0.003133	0.150000	100.000000	0.200000	1	1	24	0	0	0.030420	0
78	white	0.200000	0.000010	0.150000	100.000000	0.200000	0	0	22	0	1	0.469400	0
79	white	0.200000	0.003133	0.150000	100.000000	0.200000	1	0	32	0	1	0.895480	0
80	white	0.200000	0.000010	0.150000	100.000000	0.200000	1	1	36	0	0	0.166390	0
81	white	0.200000	0.006255	0.150000	100.000000	0.200000	0	0	29	1	0	0.046030	0
82	white	0.200000	0.000010	0.150000	100.000000	0.200000	0	0	17	1	0	0.801370	0
83	white	0.200000	0.003133	0.150000	100.000000	0.200000	1	0	7	0	1	0.283190	0
84	white	0.200000	0.009378	0.150000	100.000000	0.200000	0	0	12	0	1	0.211130	0
85	white	0.200000	0.009378	0.150000	100.000000	0.200000	1	1	11	1	1	0.016150	0
86	white	0.200000	0.009378	0.150000	100.000000	0.200000	0	1	2	1	1	0.133850	0
87	white	0.200000	0.000010	0.150000	100.000000	0.200000	1	0	6	0	1	0.311270	0
88	white	0.200000	0.000010	0.150000	100.000000	0.200000	0	1	21	1	1	0.206780	0
89	white	0.200000	0.000010	0.150000	100.000000	0.200000	1	0	26	0	1	0.083120	0
90	white	0.200000	0.000010	0.150000	100.000000	0.200000	0	1	17	1	1	0.146890	0
91	white	0.200000	0.012500	0.150000	100.000000	0.200000	1	1	27	1	1	0.329950	0
92	white	0.200000	0.012500	0.150000	100.000000	0.200000	0	1	25	1	1	0.279000	0
93	white	0.200000	0.012500	0.150000	100.000000	0.200000	0	1	24	1	1	0.116060	0
94	white	0.200000	0.000010	0.150000	100.000000	0.200000	0	0	30	0	1	0.370880	0
95	white	0.200000	0.012500	0.150000	100.000000	0.200000	0	1	35	1	1	0.051550	0
96	white	0.200000	0.012500	0.150000	100.000000	0.200000	0	1	4	1	1	0.005530	0
97	white	0.200000	0.006255	0.150000	100.000000	0.200000	0	1	39	0	0	0.179510	0
98	white	0.200000	0.012500	0.150000	100.000000	0.200000	0	1	38	1	1	0.244870	0
99	white	0.200000	0.003133	0.150000	100.000000	0.200000	0	1	3	0	0	0.392870	0
